timestamp,orientation_x,orientation_y,orientation_z,orientation_w,angular_vel_x,angular_vel_y,angular_vel_z,linear_acc_x,linear_acc_y,linear_acc_z
1741261517.4059725,-0.13058339,-0.0060621463,-0.0015153929,0.9914177,-0.0149137005,-0.036218986,-0.0149137005,-0.05865794,0.0023942017,9.436746
1741261517.4074578,-0.13058527,-0.006062479,-0.0015196293,0.9914174,-0.009587379,-0.02237055,0.0021305287,-0.079008654,0.045489833,9.471462
1741261517.40946,-0.13059133,-0.0060610035,-0.0015331225,0.99141663,-0.03941478,-0.013848436,0.0042610574,-0.079008654,0.045489833,9.471462
1741261517.411342,-0.13060515,-0.0060599507,-0.0015602184,0.9914148,-0.03941478,-0.015978964,0.010652643,-0.08020575,0.047884032,9.352949
1741261517.4133484,-0.13061081,-0.0060577868,-0.001569304,0.991414,-0.03515372,-0.021305285,0.008522115,-0.08020575,0.047884032,9.352949
1741261517.415189,-0.1306271,-0.0060394225,-0.0015758921,0.991412,-0.027696872,-0.025566343,0.019174758,-0.08020575,0.047884032,9.352949
1741261517.417034,-0.13064569,-0.0060422053,-0.0015897995,0.99140954,-0.020240022,-0.025566343,0.008522115,-0.093373865,-0.079008654,9.368511
1741261517.419426,-0.13065341,-0.0060484256,-0.0015965694,0.99140847,-0.027696872,-0.0053263213,0.012783172,-0.093373865,-0.079008654,9.368511
1741261517.4211996,-0.13067128,-0.0060603917,-0.0016328256,0.99140596,-0.04154531,-0.018109493,0.006391586,-0.009576807,-0.010773907,9.344569
1741261517.4230573,-0.13068104,-0.006056029,-0.0016512064,0.99140465,-0.03515372,-0.02237055,0.008522115,-0.009576807,-0.010773907,9.344569
1741261517.4251935,-0.13068308,-0.006046742,-0.0016543352,0.9914045,-0.02450108,-0.036218986,0.0010652643,-0.009576807,-0.010773907,9.344569
1741261517.42712,-0.13069111,-0.0060409703,-0.0016836108,0.99140334,-0.036218986,-0.018109493,0.0,-0.053869538,0.021547815,9.545682
1741261517.4289923,-0.13069199,-0.006040278,-0.0016947138,0.9914032,-0.038349517,-0.01704423,-0.0010652643,-0.053869538,0.021547815,9.545682
1741261517.4310532,-0.13069542,-0.006037193,-0.0017092372,0.99140275,-0.03728425,-0.012783172,-0.003195793,-0.022744916,-0.10414778,9.434352
1741261517.4330783,-0.13071132,-0.006039214,-0.0017305139,0.99140066,-0.026631609,-0.01704423,0.0053263213,-0.022744916,-0.10414778,9.434352
1741261517.435363,-0.13071641,-0.0060467925,-0.00173509,0.9913999,-0.02237055,-0.0021305287,0.0074568503,-0.022744916,-0.10414778,9.434352
1741261517.4371703,-0.13072564,-0.006044286,-0.0017475414,0.9913987,-0.023435814,-0.023435814,0.0042610574,-0.034715924,-0.12808979,9.522937
1741261517.4391015,-0.13073063,-0.006035389,-0.0017552901,0.9913981,-0.030892665,-0.025566343,-0.0010652643,-0.034715924,-0.12808979,9.522937
1741261517.441373,-0.13073142,-0.006034881,-0.0017592962,0.991398,-0.0149137005,-0.013848436,-0.012783172,-0.016759412,-0.074220255,9.613917
1741261517.4431453,-0.1307401,-0.006035821,-0.001772642,0.9913968,-0.025566343,-0.006391586,0.008522115,-0.016759412,-0.074220255,9.613917
1741261517.4452717,-0.1307366,-0.006038422,-0.0017845705,0.9913972,-0.021305285,-0.012783172,-0.0053263213,-0.055066638,-0.11492168,9.502586
1741261517.4468696,-0.13073435,-0.0060384762,-0.0017880071,0.9913975,-0.021305285,-0.01704423,-0.0074568503,-0.055066638,-0.11492168,9.502586
1741261517.4489634,-0.13073938,-0.0060411743,-0.001792671,0.99139684,-0.019174758,-0.020240022,-0.0021305287,-0.055066638,-0.11492168,9.502586
1741261517.4509265,-0.13073626,-0.0060541476,-0.0017941573,0.99139714,-0.021305285,-0.0149137005,-0.003195793,-0.093373865,-0.075417355,9.560047
1741261517.453015,-0.130733,-0.0060544894,-0.0017928334,0.9913976,-0.011717907,-0.018109493,-0.009587379,-0.093373865,-0.075417355,9.560047
1741261517.4549813,-0.13072738,-0.0060591204,-0.0018019526,0.9913983,-0.019174758,-0.010652643,-0.010652643,-0.093373865,-0.075417355,9.560047
1741261517.4574816,-0.13072756,-0.0060636248,-0.0018010678,0.9913982,-0.012783172,-0.021305285,-0.0074568503,-0.029927522,-0.08259996,9.616311
1741261517.459386,-0.13072641,-0.006060292,-0.0018029901,0.9913984,-0.019174758,-0.02450108,-0.0053263213,-0.029927522,-0.08259996,9.616311
1741261517.4615247,-0.13072455,-0.006066684,-0.001801139,0.9913986,-0.015978964,-0.0042610574,-0.0042610574,-0.039504327,-0.18435353,9.557653
1741261517.4633596,-0.1307222,-0.0060623223,-0.001787548,0.991399,0.0,-0.030892665,-0.003195793,-0.039504327,-0.18435353,9.557653
1741261517.4654772,-0.13071893,-0.0060546957,-0.0017775706,0.99139947,-0.011717907,-0.026631609,-0.0053263213,-0.079008654,-0.07182605,9.497798
1741261517.4672818,-0.13071832,-0.0060535725,-0.0017709833,0.9913995,-0.0010652643,-0.02237055,-0.0042610574,-0.079008654,-0.07182605,9.497798
1741261517.469012,-0.1307108,-0.006041603,-0.0017556663,0.99140066,-0.0053263213,-0.026631609,-0.006391586,-0.011971008,-0.01316811,9.524135
1741261517.4710195,-0.13070056,-0.0060439855,-0.0017467452,0.991402,-0.0021305287,-0.010652643,-0.01704423,-0.011971008,-0.01316811,9.524135
1741261517.4731548,-0.13069452,-0.00604294,-0.0017467735,0.99140286,-0.01704423,-0.018109493,-0.009587379,-0.011971008,-0.01316811,9.524135
1741261517.4751253,-0.13069433,-0.0060385265,-0.001752232,0.99140286,-0.023435814,-0.027696872,-0.0042610574,-0.04189853,-0.06943185,9.457097
1741261517.4771302,-0.13069828,-0.0060388464,-0.0017588706,0.9914023,-0.015978964,-0.0149137005,0.0021305287,-0.04189853,-0.06943185,9.457097
1741261517.4791794,-0.1306961,-0.0060368497,-0.0017538305,0.9914026,-0.0053263213,-0.023435814,-0.0074568503,-0.04189853,-0.06943185,9.457097
1741261517.4811935,-0.1307017,-0.0060282024,-0.0017640572,0.9914019,-0.030892665,-0.025566343,0.008522115,-0.06464344,-0.044292733,9.457097
1741261517.4831545,-0.13071348,-0.006028941,-0.0017705837,0.99140036,-0.019174758,-0.018109493,0.009587379,-0.06464344,-0.044292733,9.457097
1741261517.485467,-0.13071552,-0.006024659,-0.0017672814,0.99140006,-0.009587379,-0.027696872,0.0010652643,0.0035913025,-0.04070143,9.43076
1741261517.487024,-0.1307121,-0.00601676,-0.0017659538,0.9914006,-0.01704423,-0.025566343,-0.006391586,0.0035913025,-0.04070143,9.43076
1741261517.4891944,-0.13070938,-0.006015583,-0.0017619083,0.991401,-0.0074568503,-0.021305285,-0.008522115,0.0035913025,-0.04070143,9.43076
1741261517.4910254,-0.13071339,-0.0060096774,-0.001767454,0.9914005,-0.028762136,-0.012783172,0.0042610574,0.046686932,-0.08140286,9.411607
1741261517.493145,-0.13070789,-0.005999532,-0.0017628464,0.99140126,-0.010652643,-0.021305285,0.0,0.046686932,-0.08140286,9.411607
1741261517.4951024,-0.13070938,-0.0059966194,-0.0017613248,0.99140114,-0.012783172,-0.023435814,0.0,0.044292733,0.01436521,9.509769
1741261517.4971597,-0.1307165,-0.005998357,-0.0017655261,0.9914002,-0.023435814,-0.01704423,0.006391586,0.044292733,0.01436521,9.509769
1741261517.4993916,-0.13071892,-0.0059951367,-0.0017693447,0.9913998,-0.0149137005,-0.023435814,-0.0010652643,0.044292733,0.01436521,9.509769
1741261517.5011737,-0.13070852,-0.0059915017,-0.0017773552,0.9914012,-0.013848436,-0.02237055,-0.0042610574,0.055066638,-0.007182605,9.489418
1741261517.5030487,-0.13070892,-0.0059909755,-0.0017800898,0.99140114,-0.021305285,-0.01704423,-0.0021305287,0.055066638,-0.007182605,9.489418
1741261517.5053604,-0.13071491,-0.0059847957,-0.0017872816,0.99140036,-0.019174758,-0.009587379,0.0010652643,-0.007182605,-0.075417355,9.506178
1741261517.507228,-0.13071989,-0.005992574,-0.0017888736,0.9913997,-0.0149137005,-0.0149137005,-0.0010652643,-0.007182605,-0.075417355,9.506178
1741261517.5091603,-0.13072135,-0.0059937946,-0.0017877595,0.9913995,-0.012783172,-0.0149137005,0.0,-0.007182605,-0.075417355,9.506178
1741261517.5113215,-0.13072297,-0.0060027316,-0.0017932795,0.9913992,-0.018109493,-0.018109493,-0.003195793,0.10295067,-0.06344634,9.44752
1741261517.513183,-0.13072869,-0.0060003605,-0.0017928566,0.99139845,-0.0149137005,-0.021305285,0.008522115,0.10295067,-0.06344634,9.44752
1741261517.5153136,-0.13072915,-0.005992325,-0.0017938282,0.99139845,-0.019174758,-0.031957928,-0.0021305287,0.10295067,-0.06344634,9.44752
1741261517.517425,-0.1307355,-0.0059926626,-0.0018010268,0.9913976,-0.0149137005,-0.01704423,0.0042610574,0.04309563,-0.005985504,9.604341
1741261517.5191216,-0.13074099,-0.005995966,-0.0018079426,0.99139684,-0.029827401,-0.0042610574,0.0053263213,0.029927522,-0.14604631,9.545682
1741261517.5212858,-0.13074502,-0.006002047,-0.0018086638,0.99139625,-0.0149137005,-0.0042610574,0.0053263213,0.029927522,-0.14604631,9.545682
1741261517.5236032,-0.13075194,-0.0060064415,-0.0018224131,0.99139535,-0.021305285,-0.008522115,0.003195793,0.029927522,-0.14604631,9.545682
1741261517.5253983,-0.13075446,-0.006008357,-0.0018223121,0.991395,-0.013848436,-0.012783172,0.0021305287,0.04309563,-0.089782566,9.473856
1741261517.5271518,-0.13075687,-0.0060074707,-0.0018209713,0.9913947,-0.010652643,-0.015978964,0.0021305287,0.04309563,-0.089782566,9.473856
1741261517.5293124,-0.13076396,-0.0060029896,-0.001816165,0.9913938,-0.011717907,-0.040480044,-0.0042610574,0.08619126,-0.053869538,9.582792
1741261517.5311456,-0.1307634,-0.005994574,-0.0018119783,0.9913939,-0.008522115,-0.03408846,-0.0042610574,0.08619126,-0.053869538,9.582792
1741261517.532989,-0.13076422,-0.005993379,-0.0018147354,0.99139374,-0.0149137005,-0.023435814,0.0021305287,0.08619126,-0.053869538,9.582792
1741261517.5351126,-0.13076396,-0.00599389,-0.0018160864,0.9913938,-0.0149137005,-0.013848436,-0.0010652643,0.047884032,-0.12090719,9.516952
1741261517.5371575,-0.13076425,-0.0059896447,-0.0018213002,0.9913938,-0.02237055,-0.020240022,-0.008522115,0.047884032,-0.12090719,9.516952
1741261517.539018,-0.1307597,-0.0059948405,-0.0018241295,0.9913944,-0.015978964,-0.0010652643,-0.0074568503,0.047884032,-0.12090719,9.516952
1741261517.5411,-0.1307557,-0.0059990874,-0.0018280023,0.9913949,-0.02237055,-0.011717907,-0.008522115,-0.027533319,-0.110133275,9.489418
1741261517.5431366,-0.13074699,-0.005987088,-0.0018301476,0.99139607,-0.011717907,-0.02450108,-0.011717907,-0.027533319,-0.110133275,9.489418
1741261517.5452046,-0.13074005,-0.005984182,-0.0018263882,0.991397,-0.0074568503,-0.023435814,-0.01704423,0.075417355,-0.1376666,9.489418
1741261517.547433,-0.130734,-0.005986765,-0.0018238777,0.99139786,-0.0010652643,-0.02237055,-0.013848436,0.075417355,-0.1376666,9.489418
1741261517.5492225,-0.13072035,-0.0059949206,-0.0018238783,0.9913996,0.0021305287,-0.0149137005,-0.011717907,0.053869538,-0.18195933,9.516952
1741261517.5510416,-0.13071756,-0.0059981556,-0.0018212096,0.9913999,-0.0074568503,-0.010652643,-0.008522115,0.053869538,-0.18195933,9.516952
1741261517.5532546,-0.13070829,-0.0059966007,-0.0018125781,0.99140114,-0.009587379,-0.02237055,-0.013848436,0.053869538,-0.18195933,9.516952
1741261517.5550792,-0.13070484,-0.0060034273,-0.0018058331,0.9914016,0.0010652643,-0.013848436,-0.0053263213,-0.017956512,-0.08619126,9.3733
1741261517.5569725,-0.13069853,-0.0059909774,-0.0017967868,0.9914025,0.0010652643,-0.043675836,-0.015978964,-0.017956512,-0.08619126,9.3733
1741261517.559027,-0.13068978,-0.0059865657,-0.0017983972,0.9914037,-0.006391586,-0.01704423,-0.02237055,0.045489833,-0.051475335,9.539697
1741261517.561034,-0.130682,-0.0059984257,-0.0017991199,0.99140465,-0.018109493,-0.006391586,-0.0149137005,0.045489833,-0.051475335,9.539697
1741261517.563156,-0.13067724,-0.005989987,-0.0017961616,0.9914053,-0.010652643,-0.03408846,-0.012783172,0.045489833,-0.051475335,9.539697
1741261517.5650394,-0.13066743,-0.005982789,-0.0017975862,0.9914066,-0.013848436,-0.020240022,-0.0042610574,0.019153614,-0.06584055,9.515755
1741261517.5673003,-0.13066398,-0.005986997,-0.0018001584,0.9914071,-0.010652643,-0.019174758,-0.008522115,0.019153614,-0.06584055,9.515755
1741261517.5691545,-0.13065965,-0.005982728,-0.0018029748,0.9914077,-0.021305285,-0.02450108,-0.011717907,0.0023942017,-0.05746084,9.509769
1741261517.5712774,-0.13065137,-0.005983443,-0.0018039559,0.99140877,-0.006391586,-0.013848436,-0.003195793,0.0023942017,-0.05746084,9.509769
1741261517.573427,-0.13064584,-0.005982193,-0.0018044624,0.9914095,-0.013848436,-0.027696872,-0.003195793,0.045489833,-0.047884032,9.488221
1741261517.5752718,-0.13064413,-0.005983091,-0.0018051529,0.9914097,-0.015978964,-0.0149137005,-0.006391586,0.045489833,-0.047884032,9.488221
1741261517.5769897,-0.13064533,-0.00598729,-0.0017992787,0.99140954,-0.015978964,-0.0149137005,-0.0042610574,0.045489833,-0.047884032,9.488221
1741261517.5790684,-0.13064316,-0.0059815072,-0.0018006678,0.9914099,-0.019174758,-0.027696872,-0.0074568503,0.094570965,-0.08499416,9.449914
1741261517.5810087,-0.13064247,-0.005970526,-0.0018019915,0.99141,-0.018109493,-0.021305285,-0.006391586,0.094570965,-0.08499416,9.449914
1741261517.583053,-0.13063805,-0.0059651146,-0.0018041036,0.9914106,-0.018109493,-0.019174758,-0.0042610574,0.094570965,-0.08499416,9.449914
1741261517.585025,-0.13063622,-0.005956345,-0.001796366,0.9914109,-0.011717907,-0.019174758,-0.0042610574,0.04309563,-0.007182605,9.587581
1741261517.5876107,-0.13063869,-0.005958843,-0.0017992428,0.99141055,-0.020240022,-0.010652643,0.0021305287,0.04309563,-0.007182605,9.587581
1741261517.5894241,-0.13063581,-0.0059560617,-0.0018022482,0.991411,-0.01704423,-0.01704423,-0.011717907,0.075417355,-0.05865794,9.49301
1741261517.5914495,-0.1306425,-0.0059447163,-0.0018090495,0.99141014,-0.012783172,-0.029827401,0.0010652643,0.075417355,-0.05865794,9.49301
1741261517.5940664,-0.13064916,-0.0059345304,-0.0018187303,0.9914093,-0.023435814,-0.0149137005,0.006391586,0.075417355,-0.05865794,9.49301
1741261517.595721,-0.13064307,-0.005923166,-0.0018214505,0.9914102,-0.010652643,-0.023435814,-0.011717907,0.04189853,-0.022744916,9.52174
1741261517.59713,-0.13065131,-0.0059213056,-0.0018180482,0.9914091,-0.013848436,-0.01704423,0.0042610574,0.04189853,-0.022744916,9.52174
1741261517.5990374,-0.13065653,-0.0059172423,-0.0018173477,0.99140847,-0.0149137005,-0.02450108,0.0074568503,0.11252748,-0.110133275,9.473856
1741261517.6011221,-0.13066208,-0.0059034107,-0.0018164428,0.99140775,-0.013848436,-0.033023193,-0.009587379,0.11252748,-0.110133275,9.473856
1741261517.6030278,-0.13066566,-0.0058924966,-0.0018118605,0.9914074,-0.009587379,-0.027696872,0.0021305287,0.14604631,-0.04189853,9.548077
1741261517.605181,-0.1306671,-0.0058943923,-0.00181211,0.9914072,-0.0149137005,-0.011717907,0.0,0.14604631,-0.04189853,9.548077
1741261517.6071131,-0.13067745,-0.0058857757,-0.0018163101,0.9914059,-0.02237055,-0.030892665,0.013848436,0.14604631,-0.04189853,9.548077
1741261517.6091313,-0.13068637,-0.005869151,-0.0018108311,0.99140483,-0.015978964,-0.026631609,0.010652643,0.10055647,-0.092176765,9.5492735
1741261517.6111403,-0.13069616,-0.005868105,-0.0018096914,0.9914035,-0.015978964,-0.01704423,0.009587379,0.10055647,-0.092176765,9.5492735
1741261517.6131754,-0.13071011,-0.005861555,-0.0018075608,0.99140173,-0.009587379,-0.015978964,0.008522115,0.059855044,-0.1340753,9.411607
1741261517.6153686,-0.13071708,-0.0058731996,-0.0018176563,0.9914007,-0.033023193,-0.0042610574,0.0042610574,0.059855044,-0.1340753,9.411607
1741261517.6172118,-0.13072224,-0.0058744703,-0.0018149326,0.99140006,-0.008522115,-0.013848436,0.0074568503,0.059855044,-0.1340753,9.411607
1741261517.619154,-0.1307341,-0.005868283,-0.0018087064,0.9913985,-0.011717907,-0.019174758,0.003195793,0.12689269,-0.07062895,9.490616
1741261517.6212978,-0.1307376,-0.00586568,-0.0018035439,0.9913981,-0.013848436,-0.021305285,-0.0074568503,0.12689269,-0.07062895,9.490616
1741261517.6230826,-0.13073593,-0.0058609466,-0.0017999304,0.99139833,-0.008522115,-0.025566343,-0.006391586,0.12689269,-0.07062895,9.490616
1741261517.6254966,-0.13073342,-0.005862921,-0.0017996905,0.9913987,-0.019174758,0.0,0.0021305287,0.1340753,-0.15322891,9.531317
1741261517.627552,-0.13073547,-0.0058586053,-0.0017963909,0.99139845,-0.008522115,-0.02450108,0.0010652643,0.1340753,-0.15322891,9.531317
1741261517.6296937,-0.1307304,-0.005861435,-0.0018004366,0.9913991,-0.020240022,-0.0053263213,-0.006391586,0.022744916,-0.062249243,9.386468
1741261517.631363,-0.13072678,-0.005865362,-0.0018058608,0.9913995,-0.0149137005,-0.008522115,-0.0149137005,0.022744916,-0.062249243,9.386468
1741261517.6335812,-0.13072672,-0.005858432,-0.0018047204,0.9913995,-0.013848436,-0.029827401,-0.003195793,0.022744916,-0.062249243,9.386468
1741261517.6349885,-0.13072224,-0.0058536814,-0.0018141996,0.9914001,-0.030892665,-0.020240022,0.0010652643,0.093373865,-0.039504327,9.51336
1741261517.63723,-0.13071015,-0.005856313,-0.001826652,0.99140173,-0.027696872,-0.019174758,-0.009587379,0.093373865,-0.039504327,9.51336
1741261517.639238,-0.13070786,-0.0058529656,-0.0018212529,0.99140203,-0.0074568503,-0.018109493,-0.0010652643,0.06943185,-0.16160862,9.512163
1741261517.6412435,-0.13070346,-0.0058543943,-0.0018255163,0.9914026,-0.02237055,-0.011717907,-0.011717907,0.06943185,-0.16160862,9.512163
1741261517.643126,-0.1307033,-0.0058509693,-0.0018173377,0.9914027,-0.006391586,-0.023435814,-0.008522115,0.06943185,-0.16160862,9.512163
1741261517.6452508,-0.13070041,-0.00585092,-0.0018177358,0.99140304,-0.012783172,-0.019174758,-0.009587379,0.005985504,-0.11372458,9.452309
1741261517.6475635,-0.13070711,-0.005845902,-0.0018094844,0.9914022,-0.015978964,-0.01704423,0.0010652643,0.005985504,-0.11372458,9.452309
1741261517.6495705,-0.13070151,-0.0058441497,-0.001802023,0.99140304,-0.0149137005,-0.01704423,-0.009587379,0.047884032,-0.005985504,9.544485
1741261517.6516662,-0.13069913,-0.0058481414,-0.0017989274,0.9914033,-0.015978964,-0.0149137005,-0.0021305287,0.047884032,-0.005985504,9.544485
1741261517.6535492,-0.13069537,-0.0058417753,-0.0017996688,0.9914038,-0.018109493,-0.028762136,-0.010652643,0.031124622,-0.016759412,9.449914
1741261517.6554077,-0.13069886,-0.005838468,-0.0018001528,0.9914034,-0.018109493,-0.0149137005,0.0,0.031124622,-0.016759412,9.449914
1741261517.6576989,-0.13069963,-0.0058382186,-0.0018062434,0.9914032,-0.027696872,-0.02237055,0.0053263213,0.031124622,-0.016759412,9.449914
1741261517.6592464,-0.13070521,-0.0058280793,-0.001822466,0.99140257,-0.027696872,-0.028762136,0.003195793,0.049081136,-0.10295067,9.555259
1741261517.661091,-0.13070023,-0.0058199083,-0.0018310309,0.9914033,-0.028762136,-0.02450108,0.0021305287,0.049081136,-0.10295067,9.555259
1741261517.6633952,-0.13069107,-0.005815262,-0.0018288388,0.9914045,-0.008522115,-0.020240022,-0.013848436,0.038307227,-0.033518825,9.489418
1741261517.6649978,-0.13068993,-0.0057983785,-0.0018265434,0.9914047,-0.018109493,-0.026631609,-0.010652643,0.038307227,-0.033518825,9.489418
1741261517.667743,-0.13068634,-0.0058060507,-0.0018272357,0.9914052,-0.019174758,-0.010652643,-0.0074568503,0.09816227,-0.029927522,9.548077
1741261517.6695292,-0.13068676,-0.0057942164,-0.0018215937,0.9914052,-0.025566343,-0.028762136,0.0,0.09816227,-0.029927522,9.548077
1741261517.6710522,-0.13068765,-0.005797647,-0.0018207835,0.99140507,-0.012783172,-0.009587379,-0.0010652643,0.09816227,-0.029927522,9.548077
1741261517.6737466,-0.1306937,-0.005805301,-0.0018165295,0.99140424,-0.003195793,-0.019174758,0.0021305287,0.11252748,-0.010773907,9.4774475
1741261517.676161,-0.13068712,-0.005780225,-0.001833232,0.9914052,-0.030892665,-0.02450108,-0.008522115,0.11252748,-0.010773907,9.4774475
1741261517.6773186,-0.13068907,-0.0057814866,-0.0018389581,0.9914049,-0.026631609,-0.011717907,0.0010652643,0.11252748,-0.010773907,9.4774475
1741261517.6792123,-0.13069455,-0.0057663578,-0.0018561509,0.99140424,-0.029827401,-0.027696872,-0.0042610574,0.10295067,-0.0023942017,9.585187
1741261517.6810954,-0.13069701,-0.0057666316,-0.001864863,0.99140394,-0.033023193,-0.012783172,0.0021305287,0.10295067,-0.0023942017,9.585187
1741261517.6829937,-0.13069469,-0.0057598716,-0.0018678826,0.99140424,-0.02237055,-0.030892665,-0.009587379,0.073023155,-0.08020575,9.528923
1741261517.6852071,-0.13069864,-0.0057557924,-0.0018801091,0.9914037,-0.02237055,-0.023435814,0.0021305287,0.073023155,-0.08020575,9.528923
1741261517.6878424,-0.130713,-0.0057647205,-0.0018926689,0.9914018,-0.019174758,-0.012783172,0.0149137005,0.073023155,-0.08020575,9.528923
1741261517.6898222,-0.13071758,-0.0057582897,-0.0018915654,0.9914012,-0.013848436,-0.02450108,0.0021305287,0.046686932,-0.10414778,9.472659
1741261517.6917272,-0.1307294,-0.0057636118,-0.0018965486,0.9913996,-0.009587379,-0.0074568503,0.010652643,0.046686932,-0.10414778,9.472659
1741261517.6937702,-0.13073969,-0.005763055,-0.0019013461,0.9913982,-0.025566343,-0.02237055,0.0042610574,0.12210429,-0.0011971008,9.452309
1741261517.6953015,-0.13074048,-0.0057603153,-0.0019082399,0.99139816,-0.02237055,-0.020240022,0.003195793,0.12210429,-0.0011971008,9.452309
1741261517.6975136,-0.1307452,-0.0057649952,-0.0019296672,0.99139744,-0.03515372,-0.013848436,0.0,0.08140286,-0.08619126,9.594764
1741261517.6995494,-0.13074334,-0.005764476,-0.0019346441,0.9913977,-0.023435814,-0.015978964,-0.003195793,0.08140286,-0.08619126,9.594764
1741261517.7011797,-0.13074307,-0.0057728826,-0.001946928,0.9913977,-0.03728425,0.0042610574,-0.003195793,0.08140286,-0.08619126,9.594764
1741261517.7033188,-0.13075419,-0.0057761124,-0.001964064,0.9913961,-0.012783172,-0.012783172,0.0010652643,0.08619126,-0.1376666,9.31105
1741261517.70524,-0.13075243,-0.005778792,-0.0019667074,0.9913963,-0.019174758,-0.009587379,-0.006391586,0.08619126,-0.1376666,9.31105
1741261517.70768,-0.13075836,-0.0057959217,-0.0019689314,0.9913955,-0.0149137005,0.006391586,0.0053263213,0.08619126,-0.1376666,9.31105
1741261517.7094817,-0.13076746,-0.0057870774,-0.0019844568,0.9913943,-0.02450108,-0.01704423,0.0042610574,0.06823475,-0.049081136,9.555259
1741261517.7116027,-0.13076474,-0.00578162,-0.001988126,0.9913947,-0.023435814,-0.025566343,-0.008522115,0.06823475,-0.049081136,9.555259
1741261517.713179,-0.13075761,-0.0057794875,-0.001989635,0.9913956,-0.015978964,-0.02237055,-0.009587379,0.1340753,-0.1364695,9.5732155
1741261517.715115,-0.13075364,-0.0057777595,-0.001998967,0.9913961,-0.028762136,-0.013848436,-0.0021305287,0.1340753,-0.1364695,9.5732155
1741261517.7176645,-0.13075633,-0.0057775616,-0.0020145215,0.9913958,-0.027696872,-0.021305285,0.0042610574,0.0023942017,-0.18914193,9.362526
1741261517.7191606,-0.13075827,-0.0057779173,-0.0020231542,0.9913955,-0.030892665,-0.012783172,0.0010652643,0.0023942017,-0.18914193,9.362526
1741261517.7211192,-0.13075103,-0.005773196,-0.0020303985,0.9913964,-0.0149137005,-0.021305285,-0.011717907,0.0023942017,-0.18914193,9.362526
1741261517.7230716,-0.13074183,-0.0057792985,-0.002033472,0.9913976,-0.018109493,-0.003195793,-0.021305285,0.009576807,-0.107739076,9.526528
1741261517.7258782,-0.13072127,-0.005790632,-0.0020411036,0.9914002,-0.0053263213,-0.009587379,-0.01704423,0.009576807,-0.107739076,9.526528
1741261517.7273955,-0.13070774,-0.00579606,-0.0020445872,0.991402,-0.015978964,-0.0074568503,-0.018109493,0.027533319,-0.1436521,9.5385
1741261517.729452,-0.13070531,-0.0058041094,-0.0020415513,0.9914022,-0.008522115,-0.015978964,-0.009587379,0.027533319,-0.1436521,9.5385
1741261517.7318673,-0.13070363,-0.005802318,-0.0020414358,0.99140245,-0.013848436,-0.020240022,-0.006391586,0.027533319,-0.1436521,9.5385
1741261517.73331,-0.13070075,-0.0058057234,-0.0020373885,0.99140286,-0.009587379,-0.009587379,-0.0010652643,0.020350715,-0.19632454,9.433155
1741261517.7352579,-0.13069196,-0.0058172955,-0.002032495,0.991404,-0.012783172,-0.0021305287,-0.0149137005,0.020350715,-0.19632454,9.433155
1741261517.737737,-0.13068229,-0.005816616,-0.0020229637,0.99140525,0.0,-0.026631609,-0.020240022,0.020350715,-0.19632454,9.433155
1741261517.7394009,-0.1306745,-0.0058189216,-0.002021488,0.99140626,-0.023435814,-0.013848436,-0.009587379,-0.03232172,-0.010773907,9.488221
1741261517.741893,-0.1306669,-0.0058159367,-0.0020207814,0.9914073,-0.015978964,-0.02450108,-0.018109493,0.016759412,-0.05746084,9.576807
1741261517.743682,-0.13066095,-0.005817702,-0.002023995,0.99140805,-0.020240022,-0.012783172,-0.0149137005,0.016759412,-0.05746084,9.576807
1741261517.7450535,-0.13065167,-0.005820125,-0.002030695,0.99140924,-0.019174758,-0.009587379,-0.012783172,0.016759412,-0.05746084,9.576807
1741261517.7474093,-0.13063383,-0.005822696,-0.002036967,0.99141157,-0.028762136,-0.015978964,-0.018109493,-0.027533319,-0.09935937,9.483433
1741261517.7492568,-0.13062406,-0.0058259023,-0.0020394365,0.9914128,-0.013848436,-0.01704423,-0.019174758,-0.027533319,-0.09935937,9.483433
1741261517.7510564,-0.13063134,-0.0058216415,-0.0020456063,0.99141186,-0.027696872,-0.02450108,0.011717907,-0.027533319,-0.09935937,9.483433
1741261517.7534964,-0.13062584,-0.005815491,-0.00205161,0.99141264,-0.028762136,-0.02237055,-0.0021305287,-0.04189853,-0.05626374,9.516952
1741261517.7550068,-0.1306246,-0.0058055497,-0.0020591537,0.9914128,-0.0149137005,-0.027696872,-0.010652643,-0.04189853,-0.05626374,9.516952
1741261517.7573152,-0.13061912,-0.005804735,-0.0020543947,0.9914136,-0.0053263213,-0.012783172,-0.010652643,0.035913024,-0.10055647,9.487024
1741261517.7590756,-0.13061555,-0.005809992,-0.0020566226,0.991414,-0.019174758,-0.02237055,-0.0021305287,0.035913024,-0.10055647,9.487024
1741261517.7611086,-0.13061753,-0.005811413,-0.0020554003,0.9914138,-0.011717907,-0.0149137005,0.0010652643,0.035913024,-0.10055647,9.487024
1741261517.7633145,-0.13061833,-0.005808012,-0.002062218,0.99141365,-0.025566343,-0.0149137005,0.003195793,0.053869538,-0.051475335,9.481039
1741261517.7651622,-0.13061589,-0.0058008544,-0.0020711266,0.991414,-0.025566343,-0.009587379,-0.0042610574,0.053869538,-0.051475335,9.481039
1741261517.7675014,-0.13061836,-0.005804607,-0.0020747876,0.99141365,-0.021305285,-0.008522115,0.0021305287,0.055066638,0.025139118,9.586384
1741261517.7691166,-0.13061939,-0.005816208,-0.0020895586,0.9914134,-0.029827401,-0.009587379,-0.009587379,0.055066638,0.025139118,9.586384
1741261517.7717233,-0.13062292,-0.005815198,-0.0020960323,0.99141294,-0.028762136,-0.01704423,0.0042610574,0.055066638,0.025139118,9.586384
1741261517.7733104,-0.13061689,-0.005809813,-0.0021053937,0.9914137,-0.02450108,-0.013848436,-0.006391586,0.020350715,-0.077811554,9.43914
1741261517.7753778,-0.1306127,-0.005809723,-0.0021272344,0.99141425,-0.038349517,-0.0042610574,-0.0021305287,0.020350715,-0.077811554,9.43914
1741261517.7773337,-0.13060674,-0.0058107674,-0.002130478,0.991415,-0.021305285,-0.013848436,-0.0149137005,-0.007182605,-0.15442601,9.528923
1741261517.7793715,-0.13061112,-0.0058224597,-0.0021353618,0.99141437,-0.018109493,-0.008522115,0.003195793,-0.007182605,-0.15442601,9.528923
1741261517.7819762,-0.13061504,-0.005829213,-0.0021377616,0.99141383,-0.008522115,-0.011717907,0.006391586,-0.007182605,-0.15442601,9.528923
1741261517.7839592,-0.13062586,-0.0058288234,-0.0021445132,0.99141234,-0.02237055,-0.015978964,0.011717907,0.08379706,-0.033518825,9.404425
1741261517.785184,-0.1306319,-0.005829627,-0.00215227,0.99141157,-0.030892665,-0.015978964,0.009587379,0.08379706,-0.033518825,9.404425
1741261517.787687,-0.13063626,-0.005821478,-0.002167779,0.991411,-0.027696872,-0.021305285,-0.0021305287,0.035913024,-0.055066638,9.57561
1741261517.7892272,-0.13064012,-0.005831866,-0.002171183,0.99141043,-0.011717907,-0.015978964,-0.0010652643,0.035913024,-0.055066638,9.57561
1741261517.7910244,-0.13063684,-0.0058299624,-0.0021713735,0.99141085,-0.015978964,-0.020240022,-0.009587379,0.035913024,-0.055066638,9.57561
1741261517.7935941,-0.1306385,-0.0058439714,-0.0021883748,0.99141055,-0.033023193,-0.0053263213,0.003195793,0.023942016,-0.14963761,9.388862
1741261517.7950861,-0.13064496,-0.0058503216,-0.002203071,0.9914096,-0.02237055,-0.0042610574,0.0042610574,0.023942016,-0.14963761,9.388862
1741261517.7972696,-0.1306447,-0.005845782,-0.0022148897,0.99140966,-0.02237055,-0.025566343,0.0,-0.011971008,-0.11133038,9.512163
1741261517.7993994,-0.1306428,-0.005832874,-0.0022302722,0.99140996,-0.023435814,-0.026631609,-0.003195793,-0.011971008,-0.11133038,9.512163
1741261517.8011594,-0.13064203,-0.005838605,-0.0022399612,0.99140996,-0.031957928,-0.003195793,-0.0042610574,-0.011971008,-0.11133038,9.512163
1741261517.8037817,-0.13063394,-0.005831796,-0.0022424036,0.9914111,-0.0149137005,-0.02450108,-0.008522115,0.021547815,-0.107739076,9.516952
1741261517.8058736,-0.13063447,-0.0058397967,-0.002255258,0.9914109,-0.026631609,-0.011717907,0.0021305287,0.021547815,-0.107739076,9.516952
1741261517.807654,-0.13062263,-0.0058332793,-0.0022644382,0.9914125,-0.023435814,-0.023435814,-0.013848436,-0.04070143,-0.18794483,9.467871
1741261517.8093102,-0.13061614,-0.0058366177,-0.002264364,0.99141335,-0.012783172,-0.010652643,-0.015978964,-0.04070143,-0.18794483,9.467871
1741261517.811554,-0.13060898,-0.0058405036,-0.0022705046,0.99141425,-0.015978964,-0.010652643,-0.013848436,-0.04070143,-0.18794483,9.467871
1741261517.8136897,-0.1305975,-0.0058492958,-0.002277842,0.99141574,-0.01704423,-0.0053263213,-0.009587379,-0.08140286,-0.1316811,9.503783
1741261517.815228,-0.13059364,-0.0058551207,-0.0022776665,0.99141616,-0.011717907,-0.006391586,-0.010652643,-0.08140286,-0.1316811,9.503783
1741261517.8173525,-0.13058214,-0.0058606323,-0.0022803687,0.99141765,-0.013848436,-0.0149137005,-0.0149137005,-0.04189853,-0.1352724,9.496601
1741261517.8190005,-0.13057934,-0.0058564055,-0.0022763074,0.99141806,-0.006391586,-0.02237055,-0.0053263213,-0.04189853,-0.1352724,9.496601
1741261517.8211071,-0.13056055,-0.005860359,-0.0022626796,0.99142057,-0.006391586,-0.012783172,-0.008522115,-0.053869538,-0.16879122,9.494206
1741261517.8234391,-0.13055655,-0.005867389,-0.0022634852,0.991421,-0.023435814,-0.018109493,0.0021305287,-0.053869538,-0.16879122,9.494206
1741261517.8260913,-0.13055333,-0.0058636996,-0.0022594817,0.99142146,-0.006391586,-0.026631609,-0.009587379,-0.053869538,-0.16879122,9.494206
1741261517.8278577,-0.13054743,-0.005862495,-0.002256892,0.99142224,-0.008522115,-0.021305285,-0.0149137005,-0.053869538,-0.16879122,9.494206
1741261517.8291328,-0.13053331,-0.0058719525,-0.0022323534,0.99142414,0.006391586,-0.025566343,-0.008522115,-0.09696517,-0.094570965,9.500193
1741261517.8315609,-0.13052368,-0.0058713867,-0.002233825,0.9914254,-0.01704423,-0.019174758,-0.02237055,-0.01316811,-0.027533319,9.574412
1741261517.833701,-0.13051336,-0.0058771013,-0.0022374182,0.99142665,-0.01704423,-0.006391586,-0.012783172,-0.01316811,-0.027533319,9.574412
1741261517.8350637,-0.13050622,-0.0058799526,-0.0022414,0.9914276,-0.013848436,-0.011717907,-0.012783172,-0.01316811,-0.027533319,9.574412
1741261517.8374379,-0.13049863,-0.005873369,-0.0022449784,0.9914286,-0.01704423,-0.02450108,0.0010652643,-0.11492168,-0.035913024,9.514558
1741261517.839088,-0.13049628,-0.0058758995,-0.0022469107,0.9914289,-0.009587379,-0.012783172,-0.009587379,-0.11492168,-0.035913024,9.514558
1741261517.841076,-0.13049212,-0.005882075,-0.00225829,0.9914294,-0.019174758,-0.015978964,-0.008522115,-0.08738836,-0.07182605,9.545682
1741261517.8434114,-0.13048814,-0.0058884057,-0.002261704,0.99142987,-0.020240022,-0.0074568503,-0.011717907,-0.08738836,-0.07182605,9.545682
1741261517.8452837,-0.13049044,-0.0059003737,-0.0022594244,0.9914295,-0.012783172,-0.0021305287,-0.003195793,-0.04189853,-0.04309563,9.400833
1741261517.8476818,-0.13048978,-0.005897084,-0.0022534179,0.9914296,-0.013848436,-0.02450108,-0.0021305287,-0.04189853,-0.04309563,9.400833
1741261517.8494608,-0.13049537,-0.0058894865,-0.0022634487,0.9914289,-0.026631609,-0.028762136,0.006391586,-0.04189853,-0.04309563,9.400833
1741261517.85096,-0.1304942,-0.005893145,-0.0022583439,0.99142903,-0.0042610574,-0.012783172,-0.0053263213,-0.061052144,-0.0011971008,9.518148
1741261517.8532615,-0.1305013,-0.0058858,-0.002264534,0.9914282,-0.027696872,-0.031957928,0.0053263213,-0.061052144,-0.0011971008,9.518148
1741261517.8550968,-0.13050732,-0.0058894437,-0.0022744182,0.99142736,-0.028762136,-0.012783172,-0.0021305287,-0.044292733,-0.0047884034,9.520543
1741261517.8569605,-0.13050823,-0.0058943867,-0.002275687,0.9914272,-0.01704423,-0.008522115,-0.0010652643,-0.044292733,-0.0047884034,9.520543
1741261517.8590405,-0.13051327,-0.005893146,-0.0022809946,0.9914265,-0.027696872,-0.030892665,0.0074568503,-0.044292733,-0.0047884034,9.520543
1741261517.860981,-0.1305141,-0.005881815,-0.0022822085,0.99142647,-0.026631609,-0.02237055,-0.0021305287,-0.045489833,-0.022744916,9.503783
1741261517.863747,-0.1305103,-0.005877791,-0.0022854279,0.991427,-0.023435814,-0.025566343,-0.010652643,-0.045489833,-0.022744916,9.503783
1741261517.8660321,-0.13052301,-0.005882699,-0.0023065773,0.9914253,-0.033023193,-0.0053263213,0.0053263213,-0.074220255,-0.046686932,9.510966
1741261517.8681855,-0.13052756,-0.005892186,-0.002310043,0.99142456,-0.020240022,0.0010652643,0.006391586,-0.074220255,-0.046686932,9.510966
1741261517.8695517,-0.13054025,-0.005902675,-0.0023230186,0.99142283,-0.030892665,-0.0053263213,0.018109493,-0.074220255,-0.046686932,9.510966
1741261517.8719208,-0.13054487,-0.0059028636,-0.0023274568,0.9914222,-0.02450108,-0.01704423,0.006391586,0.022744916,-0.02633622,9.425972
1741261517.8735466,-0.1305518,-0.005902001,-0.0023517963,0.9914212,-0.030892665,-0.0149137005,-0.0010652643,0.022744916,-0.02633622,9.425972
1741261517.8756776,-0.13055803,-0.0058936416,-0.002362074,0.9914204,-0.038349517,-0.031957928,0.009587379,0.022744916,-0.02633622,9.425972
1741261517.8772492,-0.13056621,-0.0058804955,-0.0023739503,0.9914194,-0.019174758,-0.023435814,0.0010652643,-0.0035913025,-0.020350715,9.554062
1741261517.879108,-0.13056332,-0.005876024,-0.0023846813,0.9914198,-0.02450108,-0.018109493,-0.0042610574,-0.0035913025,-0.020350715,9.554062
1741261517.8810372,-0.13056786,-0.005880153,-0.0023934327,0.99141914,-0.031957928,-0.0074568503,0.006391586,-0.05746084,-0.12928689,9.411607
1741261517.8832712,-0.1305801,-0.00588545,-0.0024015699,0.99141747,-0.019174758,-0.033023193,0.0,-0.05746084,-0.12928689,9.411607
1741261517.8851724,-0.13058211,-0.0058824145,-0.0024043336,0.99141717,-0.021305285,-0.023435814,0.0010652643,-0.05746084,-0.12928689,9.411607
1741261517.8877647,-0.13058856,-0.0058844266,-0.0024158682,0.99141634,-0.020240022,-0.006391586,-0.003195793,-0.076614454,-0.09696517,9.48463
1741261517.8892927,-0.13059139,-0.0058868374,-0.0024329356,0.9914159,-0.027696872,-0.02237055,0.0021305287,-0.076614454,-0.09696517,9.48463
1741261517.8911793,-0.13058268,-0.0058820485,-0.0024462955,0.99141705,-0.02450108,-0.023435814,-0.012783172,-0.025139118,-0.06823475,9.54209
1741261517.8937223,-0.1305798,-0.005883305,-0.0024502226,0.9914174,-0.026631609,-0.009587379,-0.0042610574,-0.025139118,-0.06823475,9.54209
1741261517.8952777,-0.13057111,-0.0058820276,-0.0024522392,0.9914186,-0.018109493,-0.02237055,-0.009587379,-0.05626374,-0.15801731,9.472659
1741261517.8972218,-0.13056828,-0.005885746,-0.0024571742,0.9914189,-0.023435814,-0.009587379,-0.008522115,-0.05626374,-0.15801731,9.472659
1741261517.8991272,-0.13057053,-0.0058969627,-0.0024677804,0.9914185,-0.025566343,0.0010652643,0.006391586,-0.05626374,-0.15801731,9.472659
1741261517.9017394,-0.13056222,-0.0059135137,-0.0024706342,0.9914195,-0.009587379,0.0010652643,-0.0149137005,-0.1340753,-0.11731588,9.440337
1741261517.9032917,-0.13055028,-0.0059072715,-0.0024767965,0.9914211,-0.020240022,-0.02237055,-0.0149137005,-0.1340753,-0.11731588,9.440337
1741261517.9050357,-0.13054802,-0.0059111207,-0.0024798298,0.99142134,-0.019174758,-0.010652643,-0.0074568503,-0.1340753,-0.11731588,9.440337
1741261517.9072807,-0.13052858,-0.005924484,-0.002473799,0.99142385,-0.012783172,-0.013848436,-0.018109493,-0.075417355,-0.06703765,9.516952
1741261517.909285,-0.13052216,-0.00592363,-0.0024711934,0.9914247,-0.009587379,-0.021305285,-0.015978964,-0.075417355,-0.06703765,9.516952
1741261517.9110415,-0.13051435,-0.0059401044,-0.0024753762,0.99142563,-0.012783172,-0.0010652643,-0.006391586,-0.11492168,-0.14844051,9.437943
1741261517.9137151,-0.13050818,-0.0059532467,-0.0024814878,0.99142635,-0.025566343,-0.0053263213,-0.0149137005,-0.11492168,-0.14844051,9.437943
1741261517.915372,-0.13050157,-0.00595499,-0.002485192,0.99142724,-0.021305285,-0.01704423,-0.010652643,-0.11492168,-0.14844051,9.437943
1741261517.9175236,-0.13049556,-0.0059574624,-0.0024803886,0.99142796,-0.0053263213,-0.010652643,0.0,-0.1316811,-0.10055647,9.457097
1741261517.9192498,-0.13047981,-0.0059670545,-0.0024848462,0.99143,-0.013848436,-0.011717907,-0.015978964,-0.1316811,-0.10055647,9.457097
1741261517.9211128,-0.1304718,-0.0059689255,-0.0024799525,0.99143106,-0.0042610574,-0.01704423,-0.019174758,-0.095768064,-0.022744916,9.528923
1741261517.9237134,-0.130452,-0.0059766397,-0.0024720433,0.9914336,-0.0042610574,-0.008522115,-0.02237055,-0.095768064,-0.022744916,9.528923
1741261517.9261298,-0.13044696,-0.0059722573,-0.0024811777,0.9914343,-0.01704423,-0.033023193,-0.0053263213,-0.12210429,-0.061052144,9.515755
1741261517.927455,-0.13044795,-0.0059646973,-0.0024833947,0.9914342,-0.021305285,-0.03408846,-0.0010652643,-0.12210429,-0.061052144,9.515755
1741261517.9293768,-0.1304344,-0.0059635383,-0.0024932967,0.99143595,-0.01704423,-0.011717907,-0.01704423,-0.12928689,-0.09816227,9.522937
1741261517.9315329,-0.1304294,-0.0059611266,-0.0025037355,0.9914366,-0.029827401,-0.0149137005,-0.010652643,-0.12928689,-0.09816227,9.522937
1741261517.9334981,-0.13042219,-0.005969464,-0.002510284,0.9914375,-0.025566343,-0.013848436,-0.0074568503,-0.12928689,-0.09816227,9.522937
1741261517.9352393,-0.1304131,-0.0059638903,-0.0025068684,0.9914387,-0.011717907,-0.027696872,-0.013848436,-0.06344634,-0.055066638,9.448717
1741261517.9372501,-0.1304083,-0.0059552337,-0.00250838,0.9914394,-0.020240022,-0.036218986,-0.012783172,-0.06344634,-0.055066638,9.448717
1741261517.9390018,-0.13039947,-0.005962293,-0.0025096308,0.99144053,-0.0149137005,-0.0149137005,-0.010652643,-0.07182605,-0.044292733,9.562442
1741261517.940976,-0.1303914,-0.0059654545,-0.0025099008,0.99144155,-0.0149137005,-0.012783172,-0.019174758,-0.07182605,-0.044292733,9.562442
1741261517.9433217,-0.1303853,-0.0059603686,-0.0025157188,0.9914424,-0.021305285,-0.031957928,-0.0053263213,-0.07182605,-0.044292733,9.562442
1741261517.9450114,-0.13038145,-0.0059632724,-0.0025174795,0.99144286,-0.018109493,-0.012783172,-0.010652643,-0.044292733,-0.023942016,9.563639
1741261517.9473946,-0.1303838,-0.0059582978,-0.0025240453,0.99144256,-0.02450108,-0.019174758,-0.0042610574,-0.044292733,-0.023942016,9.563639
1741261517.9492114,-0.1303795,-0.0059562824,-0.002521275,0.99144316,-0.010652643,-0.023435814,-0.011717907,-0.044292733,-0.023942016,9.563639
1741261517.9510539,-0.13037506,-0.0059486507,-0.0025308728,0.99144375,-0.02450108,-0.021305285,-0.010652643,-0.055066638,-0.050278235,9.491813
1741261517.9535134,-0.13036561,-0.0059568873,-0.0025438424,0.99144495,-0.030892665,-0.011717907,-0.009587379,-0.055066638,-0.050278235,9.491813
1741261517.9550872,-0.13036431,-0.005958745,-0.002543092,0.99144506,-0.012783172,-0.023435814,-0.0042610574,-0.10175357,-0.108936176,9.503783
1741261517.957506,-0.13036878,-0.0059673726,-0.00254132,0.9914444,-0.010652643,-0.01704423,0.0074568503,-0.10175357,-0.108936176,9.503783
1741261517.959277,-0.13037485,-0.005969088,-0.0025473945,0.99144363,-0.018109493,-0.011717907,0.0053263213,-0.01316811,-0.090979666,9.394848
1741261517.9618275,-0.13037407,-0.0059641614,-0.002560697,0.9914437,-0.030892665,-0.027696872,-0.008522115,-0.01316811,-0.090979666,9.394848
1741261517.9635544,-0.13037765,-0.0059621283,-0.0025658312,0.9914433,-0.025566343,-0.021305285,0.0042610574,-0.01316811,-0.090979666,9.394848
1741261517.9659088,-0.13038355,-0.0059676548,-0.0025760832,0.99144244,-0.023435814,-0.0074568503,0.0042610574,-0.0047884034,-0.0011971008,9.5971575
1741261517.9677963,-0.1303828,-0.0059627476,-0.0025808709,0.99144256,-0.021305285,-0.027696872,-0.0074568503,-0.0047884034,-0.0011971008,9.5971575
1741261517.9692717,-0.13038377,-0.005959038,-0.0025843612,0.9914424,-0.023435814,-0.02450108,-0.0010652643,-0.0047884034,-0.0011971008,9.5971575
1741261517.9716437,-0.13038595,-0.005962087,-0.0026019437,0.9914421,-0.036218986,-0.015978964,0.0,-0.045489833,-0.11851298,9.533711
1741261517.9733787,-0.13038027,-0.0059722313,-0.0026144423,0.99144274,-0.02450108,-0.0053263213,-0.0042610574,-0.045489833,-0.11851298,9.533711
1741261517.9752018,-0.13037907,-0.00597415,-0.002616352,0.99144286,-0.018109493,-0.013848436,-0.0053263213,-0.053869538,-0.14604631,9.399636
1741261517.9774554,-0.13037282,-0.005979849,-0.0026229755,0.99144363,-0.025566343,-0.0021305287,-0.0021305287,-0.053869538,-0.14604631,9.399636
1741261517.9790356,-0.13037623,-0.005979926,-0.0026358822,0.99144316,-0.020240022,-0.010652643,-0.0074568503,-0.0035913025,-0.074220255,9.566033
1741261517.9809709,-0.13037348,-0.0059779426,-0.0026385095,0.9914435,-0.020240022,-0.021305285,-0.008522115,-0.0035913025,-0.074220255,9.566033
1741261517.983367,-0.13036679,-0.0059758076,-0.002644594,0.9914444,-0.009587379,-0.019174758,-0.0053263213,-0.0035913025,-0.074220255,9.566033
1741261517.9849749,-0.13035545,-0.005973876,-0.0026490306,0.99144584,-0.02450108,-0.021305285,-0.0149137005,-0.037110128,-0.14604631,9.526528
1741261517.987285,-0.13035157,-0.005978809,-0.0026515655,0.9914464,-0.018109493,-0.0074568503,-0.010652643,-0.037110128,-0.14604631,9.526528
1741261517.98906,-0.13033913,-0.0059852838,-0.002653601,0.991448,-0.010652643,-0.015978964,-0.021305285,-0.037110128,-0.14604631,9.526528
1741261517.9909987,-0.13032512,-0.0059857704,-0.0026613206,0.9914498,-0.01704423,-0.026631609,-0.0149137005,-0.077811554,-0.11133038,9.419987
1741261517.9932222,-0.13030532,-0.0059817187,-0.0026564135,0.9914524,-0.0074568503,-0.02450108,-0.013848436,-0.077811554,-0.11133038,9.419987
1741261517.9950156,-0.13030152,-0.0059788227,-0.0026590654,0.9914529,-0.020240022,-0.023435814,-0.010652643,-0.077811554,-0.11611878,9.518148
1741261517.9973764,-0.13027789,-0.0059860847,-0.0026561841,0.99145603,-0.012783172,-0.010652643,-0.02237055,-0.077811554,-0.11611878,9.518148
1741261517.9991288,-0.13027303,-0.00598639,-0.0026554998,0.9914566,-0.012783172,-0.018109493,-0.012783172,-0.077811554,-0.11611878,9.518148
1741261518.0014343,-0.13025853,-0.005983593,-0.0026420923,0.9914586,-0.0021305287,-0.028762136,-0.013848436,-0.089782566,-0.18435353,9.552865
1741261518.0032377,-0.1302467,-0.005981803,-0.002644181,0.99146014,-0.018109493,-0.02450108,-0.011717907,-0.089782566,-0.18435353,9.552865
1741261518.0058765,-0.13023815,-0.0059795156,-0.0026477128,0.9914613,-0.021305285,-0.02237055,-0.020240022,-0.09696517,-0.11492168,9.454702
1741261518.0076985,-0.13022666,-0.005992428,-0.0026366445,0.99146277,-0.018109493,-0.0074568503,-0.003195793,-0.09696517,-0.11492168,9.454702
1741261518.0092175,-0.13021581,-0.0059991945,-0.0026369109,0.9914641,-0.02237055,-0.0053263213,-0.019174758,-0.10414778,-0.05746084,9.581595
1741261518.011563,-0.13021035,-0.005994548,-0.0026391712,0.99146485,-0.008522115,-0.02450108,-0.0021305287,-0.10414778,-0.05746084,9.581595
1741261518.013528,-0.13019429,-0.0059910645,-0.0026445773,0.99146694,-0.019174758,-0.0149137005,-0.018109493,-0.108936176,-0.10055647,9.472659
1741261518.0157187,-0.13017666,-0.0059868367,-0.0026520072,0.99146926,-0.028762136,-0.0149137005,-0.019174758,-0.108936176,-0.10055647,9.472659
1741261518.0174608,-0.13017152,-0.005996838,-0.0026629486,0.99146986,-0.015978964,-0.0149137005,-0.0042610574,-0.108936176,-0.10055647,9.472659
1741261518.0193682,-0.1301714,-0.0059967167,-0.0026648252,0.99146986,-0.018109493,-0.019174758,-0.003195793,-0.11372458,-0.12808979,9.52174
1741261518.0216265,-0.13015622,-0.006000475,-0.0026753563,0.9914718,-0.013848436,-0.01704423,-0.020240022,-0.11372458,-0.12808979,9.52174
1741261518.0234168,-0.13015182,-0.005995967,-0.0026748974,0.9914724,-0.012783172,-0.023435814,-0.0021305287,-0.06464344,-0.08738836,9.461885
1741261518.025704,-0.1301364,-0.005987941,-0.0026706096,0.99147457,-0.018109493,-0.025566343,-0.01704423,-0.06464344,-0.08738836,9.461885
1741261518.0276446,-0.13013723,-0.005990455,-0.0026682306,0.9914744,-0.012783172,-0.010652643,-0.0021305287,-0.06464344,-0.08738836,9.461885
1741261518.0292628,-0.13013282,-0.0059860167,-0.002668075,0.99147505,-0.013848436,-0.029827401,-0.003195793,-0.045489833,-0.08738836,9.5013895
1741261518.0316916,-0.13012849,-0.005975885,-0.0026692653,0.99147564,-0.0053263213,-0.03408846,-0.008522115,-0.045489833,-0.08738836,9.5013895
1741261518.0334857,-0.13013096,-0.0059711887,-0.0026694906,0.99147534,-0.01704423,-0.021305285,0.0,-0.02873042,-0.039504327,9.543288
1741261518.0350738,-0.13013141,-0.0059638303,-0.002674498,0.9914753,-0.026631609,-0.031957928,-0.0021305287,-0.02873042,-0.039504327,9.543288
1741261518.0373557,-0.13013402,-0.0059555466,-0.002678267,0.991475,-0.02450108,-0.03408846,0.0021305287,-0.02873042,-0.039504327,9.543288
1741261518.0390573,-0.1301457,-0.005945564,-0.0026986976,0.99147344,-0.028762136,-0.015978964,0.0074568503,-0.01316811,-0.050278235,9.515755
1741261518.0414424,-0.13014661,-0.0059461603,-0.0027029323,0.9914733,-0.023435814,-0.015978964,-0.0010652643,-0.01316811,-0.050278235,9.515755
1741261518.0433626,-0.13014452,-0.0059529017,-0.0027215914,0.9914735,-0.02237055,-0.02237055,0.0,-0.06344634,-0.10414778,9.592369
1741261518.0450358,-0.13015056,-0.0059519163,-0.0027347452,0.9914727,-0.029827401,-0.013848436,0.0,-0.06344634,-0.10414778,9.592369
1741261518.0471601,-0.13015504,-0.005957144,-0.0027337854,0.9914721,-0.019174758,-0.018109493,0.0010652643,-0.06344634,-0.10414778,9.592369
1741261518.049403,-0.13016209,-0.005963879,-0.0027444179,0.9914711,-0.029827401,-0.006391586,0.0,0.029927522,-0.10414778,9.457097
1741261518.0511959,-0.1301662,-0.005963419,-0.002743356,0.9914706,-0.012783172,-0.019174758,0.0053263213,0.029927522,-0.10414778,9.457097
1741261518.053561,-0.13016422,-0.005976705,-0.002749557,0.9914707,-0.015978964,-0.010652643,-0.011717907,0.029927522,-0.10414778,9.457097
1741261518.0551686,-0.13016851,-0.0059791454,-0.002765905,0.9914701,-0.027696872,-0.010652643,-0.0042610574,0.011971008,-0.027533319,9.613917
1741261518.057401,-0.13016678,-0.005977538,-0.0027714537,0.9914703,-0.026631609,-0.019174758,-0.006391586,0.011971008,-0.027533319,9.613917
1741261518.059064,-0.1301723,-0.0059692324,-0.0027791068,0.9914696,-0.006391586,-0.02237055,0.0010652643,-0.04309563,-0.11492168,9.526528
1741261518.0614038,-0.13017517,-0.005975982,-0.0027778067,0.9914692,-0.0149137005,-0.01704423,0.0042610574,-0.04309563,-0.11492168,9.526528
1741261518.0632632,-0.13017903,-0.005985649,-0.002784097,0.9914686,-0.023435814,-0.015978964,0.006391586,-0.079008654,-0.18794483,9.378088
1741261518.0657341,-0.13018312,-0.0059874337,-0.0027867362,0.9914681,-0.019174758,-0.013848436,0.0053263213,-0.079008654,-0.18794483,9.378088
1741261518.0678627,-0.130185,-0.005987592,-0.002785891,0.9914678,-0.006391586,-0.019174758,-0.0053263213,-0.079008654,-0.18794483,9.378088
1741261518.0693352,-0.13018736,-0.005989276,-0.0027907975,0.99146754,-0.027696872,-0.0074568503,0.0010652643,-0.04189853,-0.079008654,9.526528
1741261518.071465,-0.1301873,-0.005979342,-0.0027816233,0.9914676,-0.006391586,-0.027696872,-0.006391586,-0.04189853,-0.079008654,9.526528
1741261518.073491,-0.13018745,-0.0059851496,-0.0027757485,0.99146754,-0.003195793,-0.01704423,-0.0074568503,-0.038307227,-0.1412579,9.56723
1741261518.0759006,-0.13019519,-0.0059825294,-0.0027766798,0.9914665,-0.01704423,-0.02450108,0.0053263213,-0.038307227,-0.1412579,9.56723
1741261518.0774746,-0.13019451,-0.005982701,-0.0027797786,0.9914666,-0.020240022,-0.01704423,-0.0042610574,-0.038307227,-0.1412579,9.56723
1741261518.0792382,-0.13019148,-0.0059834616,-0.002789021,0.991467,-0.015978964,-0.015978964,-0.0053263213,-0.12449849,-0.07182605,9.334992
1741261518.0818062,-0.13018802,-0.0059810616,-0.0028037124,0.9914674,-0.03515372,-0.021305285,-0.0042610574,-0.12449849,-0.07182605,9.334992
1741261518.0835469,-0.13018632,-0.0059817433,-0.0028056107,0.9914676,-0.018109493,-0.01704423,-0.006391586,-0.12449849,-0.07182605,9.334992
1741261518.085175,-0.13017659,-0.005980102,-0.0028111767,0.9914689,-0.02237055,-0.01704423,-0.013848436,-0.06823475,-0.11492168,9.455899
1741261518.0873618,-0.13016894,-0.0059775743,-0.0028193663,0.9914699,-0.018109493,-0.027696872,-0.009587379,-0.06823475,-0.11492168,9.455899
1741261518.0891068,-0.13017085,-0.005974777,-0.002821812,0.9914697,-0.018109493,-0.018109493,-0.0021305287,-0.04070143,-0.23343466,9.497798
1741261518.0914242,-0.13017432,-0.0059760623,-0.0028209882,0.9914692,-0.021305285,-0.019174758,-0.0010652643,-0.04070143,-0.23343466,9.497798
1741261518.0934832,-0.1301797,-0.005982764,-0.0028252571,0.9914685,-0.013848436,-0.018109493,-0.0074568503,-0.075417355,-0.110133275,9.416395
1741261518.0951965,-0.13017912,-0.0059776525,-0.0028252979,0.99146855,-0.0149137005,-0.028762136,-0.0042610574,-0.075417355,-0.110133275,9.416395
1741261518.0974991,-0.13017963,-0.0059636105,-0.0028140205,0.99146855,-0.0042610574,-0.033023193,-0.003195793,-0.075417355,-0.110133275,9.416395
1741261518.099296,-0.13017848,-0.0059549003,-0.0028069934,0.99146885,-0.0021305287,-0.025566343,-0.0074568503,-0.025139118,-0.044292733,9.560047
1741261518.1016715,-0.13017403,-0.005956864,-0.0028031373,0.9914694,-0.0074568503,-0.020240022,-0.0074568503,-0.025139118,-0.044292733,9.560047
1741261518.1034026,-0.13016866,-0.005935415,-0.0027979114,0.9914703,-0.01704423,-0.03515372,-0.006391586,-0.047884032,-0.12928689,9.507375
1741261518.105215,-0.1301673,-0.0059381393,-0.0028080526,0.99147034,-0.011717907,-0.015978964,-0.009587379,-0.047884032,-0.12928689,9.507375
1741261518.1075084,-0.13016719,-0.005939504,-0.002806972,0.9914704,-0.011717907,-0.015978964,-0.003195793,-0.047884032,-0.12928689,9.507375
1741261518.1092703,-0.13016945,-0.0059417733,-0.0028110514,0.99147004,-0.01704423,-0.018109493,0.0021305287,-0.08140286,-0.12090719,9.514558
1741261518.1116498,-0.13017301,-0.005941602,-0.0028146366,0.99146956,-0.021305285,-0.018109493,0.0042610574,-0.08140286,-0.12090719,9.514558
1741261518.1133757,-0.13017215,-0.0059419246,-0.0028133886,0.9914697,-0.0010652643,-0.028762136,-0.006391586,-0.016759412,-0.035913024,9.540894
1741261518.1149902,-0.1301726,-0.0059378077,-0.0028172836,0.9914697,-0.023435814,-0.025566343,-0.0021305287,-0.016759412,-0.035913024,9.540894
1741261518.1169999,-0.13017967,-0.005947243,-0.0028170268,0.99146867,-0.010652643,-0.015978964,0.009587379,-0.016759412,-0.035913024,9.540894
1741261518.1189904,-0.13018519,-0.0059543042,-0.0028163576,0.9914679,-0.006391586,-0.010652643,0.0074568503,0.029927522,-0.073023155,9.579201
1741261518.1210132,-0.13019551,-0.0059532854,-0.0028183688,0.9914666,-0.021305285,-0.0149137005,0.013848436,0.029927522,-0.073023155,9.579201
1741261518.1230013,-0.13020104,-0.005960923,-0.0028138899,0.9914658,-0.010652643,-0.009587379,0.0,0.027533319,-0.021547815,9.488221
1741261518.1266985,-0.13020809,-0.005966644,-0.002822912,0.99146485,-0.015978964,-0.011717907,0.003195793,0.027533319,-0.021547815,9.488221
1741261518.1280603,-0.13021624,-0.0059623052,-0.0028225966,0.9914638,-0.015978964,-0.01704423,0.008522115,0.0023942017,-0.025139118,9.600749
1741261518.1301484,-0.13022496,-0.0059633786,-0.0028209728,0.99146265,-0.012783172,-0.013848436,0.006391586,0.0023942017,-0.025139118,9.600749
1741261518.1317668,-0.13023214,-0.0059715095,-0.002825968,0.99146163,-0.023435814,0.0,0.011717907,0.0023942017,-0.025139118,9.600749
1741261518.1337306,-0.13023797,-0.0059737433,-0.0028487544,0.9914608,-0.025566343,-0.025566343,-0.008522115,0.007182605,-0.076614454,9.461885
1741261518.1360588,-0.13024564,-0.005976737,-0.0028485458,0.9914598,-0.018109493,-0.010652643,0.013848436,0.007182605,-0.076614454,9.461885
1741261518.1374605,-0.13025635,-0.0059845718,-0.0028566339,0.9914583,-0.021305285,-0.008522115,0.011717907,0.0035913025,-0.108936176,9.500193
1741261518.1392076,-0.130266,-0.0059934002,-0.0028693422,0.9914569,-0.027696872,-0.0074568503,0.008522115,0.0035913025,-0.108936176,9.500193
1741261518.141513,-0.13028102,-0.0059961574,-0.0028755232,0.9914549,-0.02237055,-0.020240022,0.010652643,0.0035913025,-0.108936176,9.500193
1741261518.1433277,-0.13028513,-0.0059932577,-0.0028782785,0.99145436,-0.021305285,-0.02237055,0.0053263213,-0.005985504,-0.035913024,9.465476
1741261518.145121,-0.13029362,-0.0059985584,-0.0028945857,0.9914532,-0.023435814,-0.015978964,0.011717907,-0.005985504,-0.035913024,9.465476
1741261518.1473022,-0.13029145,-0.005989839,-0.002896409,0.9914535,-0.021305285,-0.03408846,-0.0074568503,-0.005985504,-0.035913024,9.465476
1741261518.1490579,-0.13028504,-0.005971058,-0.0029025334,0.9914545,-0.028762136,-0.028762136,-0.012783172,-0.023942016,-0.053869538,9.508572
1741261518.1509287,-0.13029112,-0.005970331,-0.0029078294,0.99145365,-0.019174758,-0.023435814,0.008522115,-0.023942016,-0.053869538,9.508572
1741261518.1539614,-0.13030827,-0.0059599495,-0.0029156755,0.99145144,-0.0149137005,-0.02237055,0.0,0.011971008,-0.15801731,9.346964
1741261518.155,-0.1303098,-0.005954727,-0.00291608,0.99145126,-0.01704423,-0.027696872,0.0,0.011971008,-0.15801731,9.346964
1741261518.157295,-0.13031891,-0.005951263,-0.002926273,0.99145,-0.019174758,-0.021305285,0.008522115,0.015562311,-0.09696517,9.475053
1741261518.159005,-0.13031559,-0.0059418185,-0.002930156,0.9914505,-0.019174758,-0.019174758,-0.003195793,0.015562311,-0.09696517,9.475053
1741261518.160893,-0.13031705,-0.0059421603,-0.002932504,0.9914503,-0.019174758,-0.015978964,0.0,0.015562311,-0.09696517,9.475053
1741261518.1631062,-0.13032363,-0.005933641,-0.0029330836,0.9914495,-0.02237055,-0.019174758,0.0021305287,0.06344634,-0.15083471,9.55047
1741261518.166233,-0.13032383,-0.0059384797,-0.00293972,0.9914494,-0.011717907,-0.010652643,-0.0053263213,0.06344634,-0.15083471,9.55047
1741261518.1679482,-0.13031949,-0.0059348946,-0.0029449724,0.99145,-0.025566343,-0.02237055,-0.011717907,0.06344634,-0.15083471,9.55047
1741261518.1694357,-0.1303107,-0.005925482,-0.0029587804,0.9914512,-0.009587379,-0.020240022,-0.010652643,-0.055066638,-0.12090719,9.388862
1741261518.1720846,-0.13031484,-0.005919991,-0.0029611362,0.99145067,-0.020240022,-0.027696872,0.0053263213,-0.055066638,-0.12090719,9.388862
1741261518.173741,-0.13031441,-0.0059158364,-0.0029809393,0.99145067,-0.030892665,-0.030892665,0.0021305287,0.0011971008,-0.08499416,9.498995
1741261518.1757486,-0.13030846,-0.0059064794,-0.0029850265,0.9914515,-0.019174758,-0.019174758,-0.012783172,0.0011971008,-0.08499416,9.498995
1741261518.1773665,-0.13030514,-0.0059055844,-0.0029888689,0.9914519,-0.02237055,-0.018109493,-0.009587379,0.0011971008,-0.08499416,9.498995
1741261518.1791017,-0.13029535,-0.005910226,-0.002991164,0.9914532,-0.018109493,-0.012783172,-0.0042610574,0.046686932,-0.17836803,9.460688
1741261518.1810448,-0.13028556,-0.0059126923,-0.0029923494,0.9914545,-0.023435814,-0.01704423,-0.0053263213,0.046686932,-0.17836803,9.460688
1741261518.1830766,-0.1302804,-0.005920482,-0.0029865287,0.99145514,-0.010652643,-0.003195793,0.0021305287,-0.046686932,-0.19512744,9.497798
1741261518.1850593,-0.13028283,-0.005928415,-0.0029888202,0.9914547,-0.015978964,-0.0010652643,0.0021305287,-0.046686932,-0.19512744,9.497798
1741261518.1877089,-0.13027689,-0.0059193633,-0.002986993,0.99145555,-0.010652643,-0.029827401,-0.012783172,-0.046686932,-0.19512744,9.497798
1741261518.189229,-0.13026808,-0.005922595,-0.0029802464,0.99145675,-0.021305285,-0.0053263213,-0.006391586,-0.023942016,-0.09935937,9.585187
1741261518.191672,-0.13026698,-0.005919136,-0.002976052,0.9914569,-0.006391586,-0.025566343,-0.0053263213,-0.023942016,-0.09935937,9.585187
1741261518.1935081,-0.1302581,-0.0059224074,-0.0029814444,0.991458,-0.021305285,-0.006391586,-0.011717907,0.011971008,-0.029927522,9.519346
1741261518.1952686,-0.13024984,-0.005929487,-0.0029875285,0.9914591,-0.021305285,-0.003195793,-0.012783172,0.011971008,-0.029927522,9.519346
1741261518.1975625,-0.13023758,-0.0059141675,-0.0029965006,0.99146074,-0.028762136,-0.02450108,-0.015978964,-0.02873042,-0.10654198,9.569624
1741261518.1991813,-0.13022886,-0.0059197336,-0.002990526,0.9914619,-0.011717907,-0.012783172,-0.0074568503,-0.02873042,-0.10654198,9.569624
1741261518.2017033,-0.13022238,-0.0059239985,-0.0029885382,0.9914627,-0.009587379,-0.009587379,-0.015978964,-0.02873042,-0.10654198,9.569624
1741261518.2033198,-0.13021427,-0.0059170164,-0.0029932396,0.99146384,-0.02450108,-0.027696872,-0.0149137005,-0.04189853,-0.08499416,9.519346
1741261518.205747,-0.13021134,-0.0059231636,-0.0029931802,0.99146414,-0.013848436,-0.010652643,-0.0042610574,-0.04189853,-0.08499416,9.519346
1741261518.2074673,-0.1302157,-0.0059268535,-0.0029912123,0.9914636,-0.008522115,-0.019174758,0.0042610574,-0.011971008,-0.075417355,9.491813
1741261518.2091663,-0.13021149,-0.005921084,-0.0029845648,0.9914642,-0.003195793,-0.030892665,-0.011717907,-0.011971008,-0.075417355,9.491813
1741261518.2111511,-0.13022208,-0.005925934,-0.002997614,0.9914627,-0.0149137005,-0.01704423,0.010652643,0.008379706,-0.061052144,9.49301
1741261518.2131786,-0.13022308,-0.0059234295,-0.0029945588,0.9914626,-0.009587379,-0.023435814,-0.0010652643,0.008379706,-0.061052144,9.49301
1741261518.2149482,-0.13022126,-0.0059170234,-0.0030064501,0.9914629,-0.033023193,-0.01704423,-0.0021305287,0.008379706,-0.061052144,9.49301
1741261518.217054,-0.13022783,-0.0059024193,-0.0030250705,0.991462,-0.01704423,-0.038349517,-0.012783172,0.011971008,-0.039504327,9.531317
1741261518.219029,-0.13022776,-0.00589689,-0.0030235895,0.9914621,-0.013848436,-0.028762136,-0.003195793,0.011971008,-0.039504327,9.531317
1741261518.2214296,-0.13022599,-0.005893357,-0.0030242123,0.9914623,-0.0149137005,-0.02237055,-0.003195793,0.011971008,-0.039504327,9.531317
1741261518.2233553,-0.1302282,-0.005887728,-0.0030464656,0.991462,-0.036218986,-0.027696872,0.0,-0.0035913025,-0.088585466,9.457097
1741261518.2251337,-0.13023427,-0.005885726,-0.0030566407,0.99146116,-0.02450108,-0.019174758,0.009587379,-0.0035913025,-0.088585466,9.457097
1741261518.2271457,-0.13023941,-0.0058867154,-0.003058885,0.9914605,-0.019174758,-0.0149137005,0.0074568503,0.015562311,-0.16879122,9.522937
1741261518.2294357,-0.13025762,-0.0058845603,-0.003050968,0.9914581,-0.012783172,-0.021305285,0.0149137005,0.015562311,-0.16879122,9.522937
1741261518.231541,-0.13026312,-0.005890767,-0.0030501396,0.9914574,-0.012783172,-0.0074568503,0.006391586,0.06943185,-0.073023155,9.384073
1741261518.2334688,-0.13026612,-0.005890827,-0.003057867,0.9914569,-0.029827401,-0.0149137005,0.003195793,0.06943185,-0.073023155,9.384073
1741261518.2352448,-0.13027051,-0.005887021,-0.0030636622,0.9914564,-0.018109493,-0.01704423,-0.0042610574,0.06943185,-0.073023155,9.384073
1741261518.2377813,-0.13028452,-0.005886244,-0.0030679973,0.9914545,-0.018109493,-0.015978964,0.012783172,0.029927522,-0.062249243,9.589975
1741261518.2391117,-0.13028131,-0.005879592,-0.003063879,0.991455,-0.008522115,-0.030892665,-0.009587379,0.029927522,-0.062249243,9.589975
1741261518.2417138,-0.13027886,-0.005878045,-0.0030630485,0.9914553,-0.021305285,-0.012783172,-0.0074568503,0.073023155,-0.1448492,9.390059
1741261518.2434785,-0.13028812,-0.005877156,-0.0030663884,0.9914541,-0.010652643,-0.02237055,0.009587379,0.073023155,-0.1448492,9.390059
1741261518.2450235,-0.13029057,-0.005880646,-0.0030702562,0.99145377,-0.021305285,-0.008522115,0.0021305287,0.073023155,-0.1448492,9.390059
1741261518.2476609,-0.13029552,-0.0058836904,-0.003079162,0.99145305,-0.021305285,-0.019174758,0.006391586,0.010773907,-0.09935937,9.533711
1741261518.2493513,-0.13029751,-0.005877316,-0.0030706646,0.9914529,-0.009587379,-0.02450108,0.0021305287,0.010773907,-0.09935937,9.533711
1741261518.251051,-0.1302967,-0.0058804452,-0.0030682124,0.991453,-0.008522115,-0.009587379,-0.0021305287,0.010773907,-0.09935937,9.533711
1741261518.2535434,-0.13028327,-0.005878809,-0.0030669102,0.9914547,-0.019174758,-0.0149137005,-0.0074568503,0.10055647,-0.17717093,9.5492735
1741261518.2556539,-0.13028875,-0.0058761025,-0.0030657514,0.991454,-0.020240022,-0.008522115,0.0053263213,0.10055647,-0.17717093,9.5492735
1741261518.257957,-0.13029015,-0.0058801617,-0.0030684054,0.9914538,-0.018109493,-0.0074568503,0.0,0.021547815,-0.1436521,9.497798
1741261518.2591033,-0.1302819,-0.0058764825,-0.003066761,0.9914549,-0.011717907,-0.020240022,-0.009587379,0.021547815,-0.1436521,9.497798
1741261518.2615619,-0.13027993,-0.0058857976,-0.0030732844,0.99145514,-0.021305285,-0.0010652643,-0.0074568503,-0.02873042,-0.08259996,9.504981
1741261518.2633839,-0.13027875,-0.0058852877,-0.0030757831,0.99145526,-0.019174758,-0.01704423,-0.0053263213,-0.02873042,-0.08259996,9.504981
1741261518.2655237,-0.13027535,-0.005881037,-0.0030780637,0.99145573,-0.019174758,-0.01704423,-0.0053263213,-0.02873042,-0.08259996,9.504981
1741261518.267527,-0.1302633,-0.005889326,-0.0030752288,0.9914573,-0.009587379,-0.012783172,-0.011717907,0.021547815,-0.1436521,9.555259
1741261518.2691395,-0.13025792,-0.0058894837,-0.0030734502,0.991458,-0.010652643,-0.01704423,-0.013848436,0.021547815,-0.1436521,9.555259
1741261518.2715058,-0.13025393,-0.005891444,-0.0030782581,0.9914585,-0.019174758,0.0010652643,-0.006391586,0.021547815,-0.1436521,9.555259
1741261518.2732239,-0.13025741,-0.0058989283,-0.003082946,0.99145794,-0.021305285,-0.0010652643,0.0042610574,-0.01436521,-0.17956513,9.551667
1741261518.2757611,-0.13025804,-0.005901783,-0.0030871509,0.9914578,-0.01704423,-0.023435814,-0.010652643,-0.01436521,-0.17956513,9.551667
1741261518.2776482,-0.13025327,-0.005911028,-0.0031023792,0.9914584,-0.026631609,-0.0042610574,0.0,-0.07182605,-0.073023155,9.537302
1741261518.2792969,-0.13024577,-0.0059131053,-0.0030965924,0.99145937,-0.0021305287,-0.0149137005,-0.018109493,-0.07182605,-0.073023155,9.537302
1741261518.2816331,-0.13024019,-0.005917823,-0.0031032301,0.99146,-0.02450108,-0.0149137005,-0.009587379,-0.07182605,-0.073023155,9.537302
1741261518.2834153,-0.13023236,-0.0059187682,-0.0031128463,0.99146104,-0.025566343,-0.008522115,-0.006391586,-0.01316811,-0.02873042,9.582792
1741261518.285209,-0.13023211,-0.0059160423,-0.0031231602,0.9914611,-0.025566343,-0.02237055,-0.0021305287,-0.037110128,-0.05746084,9.551667
1741261518.287108,-0.13022982,-0.005918078,-0.0031351564,0.9914613,-0.038349517,-0.010652643,-0.0074568503,-0.037110128,-0.05746084,9.551667
1741261518.2893665,-0.1302269,-0.0059152893,-0.0031463567,0.99146163,-0.028762136,-0.012783172,0.0010652643,-0.037110128,-0.05746084,9.551667
1741261518.2917268,-0.13022205,-0.0059029427,-0.0031449676,0.99146235,-0.0149137005,-0.038349517,0.0,-0.08499416,-0.09816227,9.65821
1741261518.293574,-0.13021447,-0.005894808,-0.0031538745,0.9914634,-0.026631609,-0.018109493,-0.013848436,-0.08499416,-0.09816227,9.65821
1741261518.2955983,-0.13020939,-0.0058837654,-0.003175278,0.9914641,-0.021305285,-0.019174758,-0.0021305287,-0.037110128,-0.059855044,9.564836
1741261518.297249,-0.13019757,-0.0058731427,-0.0031875533,0.9914657,-0.026631609,-0.025566343,-0.01704423,-0.037110128,-0.059855044,9.564836
1741261518.299175,-0.13019647,-0.005868185,-0.0031851318,0.9914658,-0.011717907,-0.028762136,-0.0053263213,-0.037110128,-0.059855044,9.564836
1741261518.3016913,-0.13019678,-0.0058590127,-0.0032029708,0.9914658,-0.03515372,-0.036218986,-0.0021305287,0.0,-0.11971009,9.607931
1741261518.303249,-0.13020334,-0.0058470415,-0.0032163253,0.991465,-0.036218986,-0.027696872,0.003195793,0.0,-0.11971009,9.607931
1741261518.3050995,-0.13019475,-0.0058486266,-0.0032192,0.99146605,-0.020240022,-0.013848436,-0.020240022,0.0,-0.11971009,9.607931
1741261518.3074899,-0.13019499,-0.005846675,-0.003232863,0.991466,-0.026631609,-0.020240022,-0.0042610574,-0.035913024,-0.06584055,9.463082
1741261518.3090725,-0.13019909,-0.005831744,-0.00324367,0.9914655,-0.03408846,-0.027696872,0.0,-0.035913024,-0.06584055,9.463082
1741261518.3109288,-0.13019817,-0.0058369823,-0.003264014,0.9914655,-0.030892665,-0.011717907,-0.0021305287,0.0035913025,-0.06943185,9.437943
1741261518.3130846,-0.13019638,-0.0058290786,-0.0032729076,0.99146575,-0.027696872,-0.027696872,-0.0042610574,0.0035913025,-0.06943185,9.437943
1741261518.3150792,-0.13019529,-0.0058358745,-0.0032943676,0.9914658,-0.029827401,0.0042610574,0.0,-0.005985504,-0.15801731,9.198523
1741261518.317499,-0.13019827,-0.0058405246,-0.0033025201,0.99146533,-0.029827401,-0.006391586,0.003195793,-0.005985504,-0.15801731,9.198523
1741261518.319271,-0.13020411,-0.0058448166,-0.0033180409,0.9914645,-0.02237055,-0.015978964,0.003195793,-0.005985504,-0.15801731,9.198523
1741261518.32168,-0.13020453,-0.0058419844,-0.003321013,0.9914645,-0.021305285,-0.02237055,-0.0021305287,0.034715924,-0.031124622,9.228451
1741261518.3231847,-0.13021202,-0.0058474094,-0.003344336,0.9914634,-0.030892665,-0.006391586,0.0,0.034715924,-0.031124622,9.228451
1741261518.3259196,-0.13020384,-0.005829237,-0.0033613597,0.9914645,-0.029827401,-0.019174758,-0.0042610574,0.019153614,-0.03232172,9.299079
1741261518.327696,-0.13019933,-0.0058248253,-0.0033790383,0.9914651,-0.031957928,-0.025566343,-0.008522115,0.019153614,-0.03232172,9.299079
1741261518.3292463,-0.13019647,-0.005827576,-0.0033908857,0.9914654,-0.038349517,-0.008522115,-0.008522115,0.019153614,-0.03232172,9.299079
1741261518.3317156,-0.1301977,-0.0058194627,-0.0034038133,0.9914652,-0.033023193,-0.019174758,0.008522115,0.035913024,-0.23463176,9.305065
1741261518.333523,-0.13019851,-0.005823627,-0.0034168763,0.9914651,-0.03941478,-0.0053263213,-0.0010652643,0.035913024,-0.23463176,9.305065
1741261518.3350735,-0.13019979,-0.0058208066,-0.003433338,0.99146485,-0.03515372,-0.02450108,-0.003195793,0.035913024,-0.23463176,9.305065
1741261518.337303,-0.13020463,-0.005824614,-0.003441115,0.99146414,-0.021305285,-0.012783172,0.0010652643,-0.005985504,-0.14963761,9.404425
1741261518.3390846,-0.13020287,-0.005824785,-0.0034480544,0.9914644,-0.027696872,-0.0149137005,-0.006391586,-0.005985504,-0.14963761,9.404425
1741261518.340927,-0.13019101,-0.00582272,-0.003455126,0.99146587,-0.023435814,-0.01704423,-0.0149137005,0.033518825,-0.11372458,9.540894
1741261518.343252,-0.13018745,-0.0058190413,-0.0034660525,0.99146634,-0.023435814,-0.010652643,-0.0053263213,0.033518825,-0.11372458,9.540894
1741261518.3456898,-0.13018563,-0.0058153616,-0.003472825,0.9914666,-0.019174758,-0.019174758,-0.0053263213,0.0,-0.21906945,9.725247
1741261518.347484,-0.13018383,-0.0058165174,-0.0034842493,0.9914668,-0.036218986,-0.011717907,-0.006391586,0.0,-0.21906945,9.725247
1741261518.3493478,-0.13017483,-0.005827333,-0.0034957018,0.9914679,-0.013848436,0.0010652643,-0.0149137005,0.0,-0.21906945,9.725247
1741261518.3516428,-0.13016835,-0.00582484,-0.0035025424,0.99146867,-0.027696872,-0.020240022,-0.015978964,-0.04070143,-0.18315643,9.64983
1741261518.3533204,-0.13016018,-0.005825679,-0.0035020062,0.99146974,-0.012783172,-0.02450108,-0.011717907,-0.04070143,-0.18315643,9.64983
1741261518.3551242,-0.13014874,-0.005834808,-0.0035047424,0.99147123,-0.011717907,-0.010652643,-0.012783172,-0.04070143,-0.18315643,9.64983
1741261518.3574672,-0.13013692,-0.005830586,-0.0035078714,0.9914728,-0.023435814,-0.020240022,-0.0149137005,-0.04309563,-0.17238252,9.797073
1741261518.3590338,-0.13012919,-0.00583915,-0.0035089192,0.9914738,-0.008522115,-0.011717907,-0.0149137005,-0.04309563,-0.17238252,9.797073
1741261518.3614619,-0.13012087,-0.005845333,-0.0035079138,0.9914748,-0.012783172,-0.006391586,-0.0010652643,-0.061052144,-0.23223756,9.753978
1741261518.3632946,-0.13010961,-0.0058413264,-0.003504439,0.9914763,-0.008522115,-0.01704423,-0.011717907,-0.061052144,-0.23223756,9.753978
1741261518.3651474,-0.1301043,-0.0058382503,-0.0034948348,0.9914771,0.0053263213,-0.026631609,-0.013848436,-0.061052144,-0.23223756,9.753978
1741261518.3677483,-0.13009413,-0.005837672,-0.0034831692,0.99147844,0.0021305287,-0.023435814,-0.018109493,-0.075417355,-0.1376666,9.694122
1741261518.3692915,-0.13008057,-0.005842284,-0.003474907,0.99148023,-0.009587379,-0.019174758,-0.019174758,-0.075417355,-0.1376666,9.694122
1741261518.3716366,-0.13007835,-0.005841936,-0.0034744565,0.9914805,-0.012783172,-0.019174758,-0.0074568503,-0.03232172,-0.07182605,9.653421
1741261518.3733287,-0.13006596,-0.005839926,-0.0034627612,0.9914822,-0.009587379,-0.025566343,-0.010652643,-0.03232172,-0.07182605,9.653421
1741261518.3756866,-0.1300615,-0.005834639,-0.0034719454,0.9914828,-0.026631609,-0.020240022,-0.008522115,-0.06584055,-0.10654198,9.543288
1741261518.377309,-0.13005191,-0.0058310684,-0.003475002,0.99148405,-0.021305285,-0.02450108,-0.02237055,-0.06584055,-0.10654198,9.543288
1741261518.3794422,-0.13004142,-0.005831119,-0.0034946292,0.99148536,-0.04154531,-0.021305285,-0.0074568503,-0.089782566,-0.074220255,9.403227
1741261518.3813064,-0.13004029,-0.005823963,-0.0035019412,0.99148554,-0.030892665,-0.030892665,-0.0053263213,-0.089782566,-0.074220255,9.403227
1741261518.382976,-0.1300347,-0.0058241235,-0.003517252,0.99148625,-0.028762136,-0.0074568503,-0.009587379,-0.089782566,-0.074220255,9.403227
1741261518.3852067,-0.13001923,-0.0058023003,-0.0035289822,0.9914883,-0.019174758,-0.043675836,-0.0074568503,0.0,-0.074220255,9.411607
1741261518.3875725,-0.13001594,-0.0057980753,-0.0035375424,0.99148875,-0.033023193,-0.02450108,-0.009587379,0.0,-0.074220255,9.411607
1741261518.3891075,-0.13001557,-0.0058078314,-0.0035462636,0.9914887,-0.028762136,-0.015978964,-0.0074568503,0.0,-0.074220255,9.411607
1741261518.39159,-0.13000885,-0.005820279,-0.0035484817,0.9914895,-0.015978964,0.0042610574,-0.003195793,0.021547815,-0.14724341,9.301474
1741261518.3930917,-0.13001779,-0.005857042,-0.003536962,0.99148816,0.018109493,0.020240022,0.0074568503,0.021547815,-0.14724341,9.301474
1741261518.395147,-0.13000575,-0.00592948,-0.0035258117,0.99148935,0.0,0.06711165,-0.02450108,-0.12449849,-0.07182605,10.520123
1741261518.3970537,-0.12995072,-0.0059210327,-0.0035203306,0.9914966,-0.02450108,-0.059654802,-0.07030744,-0.12449849,-0.07182605,10.520123
1741261518.3992667,-0.12988235,-0.005877585,-0.0035127273,0.9915059,-0.0053263213,-0.055393744,-0.07030744,-0.12449849,-0.07182605,10.520123
1741261518.4017253,-0.12980954,-0.005860976,-0.003396716,0.99151576,0.107591696,-0.04900216,-0.077764295,0.5638345,1.5143325,5.901707
1741261518.4032779,-0.1297132,-0.005783521,-0.003244569,0.9915295,0.063915856,-0.092677996,-0.051132686,0.5638345,1.5143325,5.901707
1741261518.4051027,-0.1296774,-0.005741876,-0.0031610315,0.9915347,0.047936894,-0.06924218,-0.03728425,0.110133275,-1.5131354,5.2528787
1741261518.4072874,-0.12966181,-0.005724212,-0.0031222452,0.9915368,0.055393744,-0.05752427,-0.03515372,0.110133275,-1.5131354,5.2528787
1741261518.4091344,-0.12964296,-0.0056803036,-0.0030337544,0.99153984,0.06604639,-0.063915856,-0.02450108,0.110133275,-1.5131354,5.2528787
1741261518.4113176,-0.12960073,-0.005582034,-0.002943665,0.9915462,0.038349517,-0.08841694,-0.033023193,0.25617957,-1.1540052,7.303512
1741261518.4131892,-0.12958327,-0.005537377,-0.0029112636,0.9915488,0.05219795,-0.10865696,-0.03941478,0.25617957,-1.1540052,7.303512
1741261518.415168,-0.12951647,-0.0054382537,-0.0028627045,0.99155825,-0.0010652643,-0.059654802,-0.045806367,0.9660604,0.80086046,7.65546
1741261518.4176772,-0.12947747,-0.0053627705,-0.0028230469,0.99156386,0.012783172,-0.090547465,-0.03728425,0.9660604,0.80086046,7.65546
1741261518.4190922,-0.12946829,-0.005331259,-0.0027896913,0.99156535,0.04261057,-0.0745685,-0.02237055,0.9660604,0.80086046,7.65546
1741261518.4214077,-0.1294381,-0.005278046,-0.0027388157,0.9915697,0.026631609,-0.06604639,-0.03408846,0.5506664,-0.20111294,6.537368
1741261518.4231362,-0.12941903,-0.005205058,-0.0027178465,0.9915726,-0.015978964,-0.05752427,-0.020240022,0.5506664,-0.20111294,6.537368
1741261518.4251263,-0.12940168,-0.0051529664,-0.002721142,0.9915752,-0.008522115,-0.062850595,-0.02450108,-0.47524905,-0.6464345,10.703279
1741261518.4273956,-0.1293781,-0.005131274,-0.0026794947,0.99157846,0.02450108,-0.012783172,-0.02450108,-0.47524905,-0.6464345,10.703279
1741261518.4291005,-0.1293506,-0.0051352824,-0.0026319425,0.99158216,0.0447411,-0.027696872,-0.033023193,-0.47524905,-0.6464345,10.703279
1741261518.43137,-0.12931159,-0.0051079276,-0.002622068,0.9915874,-0.03515372,-0.03408846,-0.03515372,0.061052144,-0.075417355,9.077616
1741261518.4336567,-0.12927946,-0.0050872844,-0.002600252,0.99159175,0.008522115,-0.03408846,-0.047936894,0.061052144,-0.075417355,9.077616
1741261518.4351497,-0.12920801,-0.005058856,-0.0025202697,0.9916014,0.043675836,-0.06924218,-0.04687163,0.7230489,-0.073023155,10.03769
1741261518.437481,-0.12917978,-0.005038312,-0.002482666,0.9916053,0.05645901,-0.06178533,-0.060720067,0.7230489,-0.073023155,10.03769
1741261518.4391112,-0.12913893,-0.005006806,-0.0024036507,0.991611,0.02237055,-0.018109493,-0.025566343,0.6428431,-0.91219085,11.477803
1741261518.441303,-0.12912415,-0.0049958336,-0.0023682106,0.99161303,0.03941478,-0.021305285,-0.018109493,0.6428431,-0.91219085,11.477803
1741261518.4431455,-0.12912144,-0.004994197,-0.0023525946,0.99161345,0.02237055,-0.015978964,-0.008522115,0.6428431,-0.91219085,11.477803
1741261518.4450996,-0.12910669,-0.0049891686,-0.0022809382,0.9916156,0.038349517,-0.029827401,-0.02450108,0.22744916,-0.4297592,11.437101
1741261518.447545,-0.12909973,-0.004991816,-0.0022660468,0.9916165,0.02237055,-0.008522115,-0.01704423,0.22744916,-0.4297592,11.437101
1741261518.4493766,-0.12909506,-0.004980496,-0.0022205391,0.99161726,0.043675836,-0.020240022,-0.006391586,0.22744916,-0.4297592,11.437101
1741261518.451506,-0.1291024,-0.0049817143,-0.0021589925,0.9916164,0.05219795,-0.026631609,-0.0010652643,0.33997664,-0.25378537,12.002133
1741261518.453402,-0.12912197,-0.004967812,-0.002128181,0.991614,0.010652643,-0.03515372,0.012783172,0.33997664,-0.25378537,12.002133
1741261518.455119,-0.12912947,-0.0049549723,-0.0021068242,0.99161315,0.029827401,-0.04261057,0.011717907,0.31364042,-0.6799533,11.522096
1741261518.4573877,-0.1291532,-0.0049471213,-0.0020773862,0.99161017,0.020240022,-0.013848436,0.019174758,0.31364042,-0.6799533,11.522096
1741261518.459221,-0.12918742,-0.0049485224,-0.0020489143,0.9916058,0.029827401,-0.008522115,0.026631609,0.31364042,-0.6799533,11.522096
1741261518.4610662,-0.1292165,-0.004942256,-0.0020076176,0.99160206,0.06178533,-0.030892665,0.02450108,0.4177882,-0.23104046,11.499351
1741261518.4634666,-0.12926921,-0.0049148775,-0.0019124522,0.99159557,0.05645901,-0.05432848,0.03941478,0.4177882,-0.23104046,11.499351
1741261518.4657323,-0.12929115,-0.004896421,-0.0018725925,0.9915929,0.064981125,-0.058589537,0.040480044,0.37229836,-0.3878607,11.073183
1741261518.4670749,-0.12933657,-0.0048670564,-0.0017885424,0.9915872,0.06924218,-0.051132686,0.04900216,0.37229836,-0.3878607,11.073183
1741261518.469098,-0.12939663,-0.0048555858,-0.0017034893,0.9915796,0.059654802,-0.03728425,0.05219795,0.44891283,-0.6847417,10.493786
1741261518.471409,-0.12944463,-0.0048348475,-0.0016161094,0.99157363,0.06711165,-0.0447411,0.043675836,0.44891283,-0.6847417,10.493786
1741261518.4730036,-0.12949891,-0.0048103607,-0.0015393919,0.9915668,0.06711165,-0.04900216,0.053263217,0.44891283,-0.6847417,10.493786
1741261518.4751635,-0.12957132,-0.0048101167,-0.001487448,0.99155736,0.029827401,-0.025566343,0.06604639,0.58657944,-0.39743748,10.19451
1741261518.4775143,-0.12967522,-0.004787981,-0.0013880084,0.991544,0.055393744,-0.025566343,0.060720067,0.58657944,-0.39743748,10.19451
1741261518.4792097,-0.12971245,-0.004770787,-0.0013511021,0.9915393,0.06178533,-0.053263217,0.07137271,0.4297592,-0.48362875,9.80665
1741261518.4815104,-0.12982965,-0.004739053,-0.0012497786,0.9915243,0.0447411,-0.031957928,0.07669903,0.4297592,-0.48362875,9.80665
1741261518.4833589,-0.12991092,-0.004703355,-0.0011782711,0.99151385,0.04900216,-0.059654802,0.08841694,0.5255273,-0.32800564,9.707291
1741261518.485656,-0.12995395,-0.004677106,-0.0011525587,0.9915084,0.03728425,-0.06817692,0.08309062,0.5255273,-0.32800564,9.707291
1741261518.4875238,-0.1300914,-0.0045677274,-0.0011182121,0.99149096,0.009587379,-0.08522114,0.08202535,0.5255273,-0.32800564,9.707291
1741261518.4898238,-0.13013598,-0.004531412,-0.0011061366,0.99148524,0.006391586,-0.08309062,0.08628641,0.9911995,0.02873042,8.423999
1741261518.491468,-0.13017857,-0.004482627,-0.0010947462,0.9914799,0.0010652643,-0.106526434,0.08202535,0.9911995,0.02873042,8.423999
1741261518.4931774,-0.13034748,-0.004235502,-0.0009977518,0.9914589,0.008522115,-0.14487594,0.07030744,0.89423436,-0.2753332,8.787917
1741261518.4951212,-0.13038497,-0.004171762,-0.00097123295,0.9914543,0.025566343,-0.13635384,0.07137271,0.89423436,-0.2753332,8.787917
1741261518.4974556,-0.13045947,-0.0040400466,-0.00091726065,0.99144506,0.026631609,-0.14061488,0.0745685,0.89423436,-0.2753332,8.787917
1741261518.4990873,-0.13053337,-0.0039222576,-0.0008592755,0.9914359,0.040480044,-0.121440135,0.07350324,0.82240826,-0.664391,9.024943
1741261518.5010488,-0.13061856,-0.0037851452,-0.0007924398,0.99142516,0.04261057,-0.14700648,0.08415588,0.82240826,-0.664391,9.024943
1741261518.5051749,-0.13066132,-0.003728566,-0.0007595191,0.9914199,0.043675836,-0.1225054,0.08202535,0.82240826,-0.664391,9.024943
1741261518.5066488,-0.13078,-0.0035601603,-0.00067567884,0.9914048,0.036218986,-0.10865696,0.07243797,0.9564836,-0.7577648,9.720459
1741261518.5078287,-0.1308615,-0.00347157,-0.0006259533,0.9913944,0.03408846,-0.09480853,0.06924218,0.9564836,-0.7577648,9.720459
1741261518.5093126,-0.13098277,-0.0033240803,-0.00052873674,0.99137896,0.04687163,-0.106526434,0.077764295,0.9684546,-0.5590461,9.13388
1741261518.5117638,-0.13105501,-0.0032547228,-0.00043124764,0.99136966,0.08628641,-0.090547465,0.06711165,0.9684546,-0.5590461,9.13388
1741261518.5135229,-0.13109246,-0.0032145288,-0.00038879615,0.9913649,0.07030744,-0.090547465,0.07137271,0.9684546,-0.5590461,9.13388
1741261518.5158656,-0.13120843,-0.003085109,-0.00027408084,0.99135,0.05219795,-0.090547465,0.075633764,0.8475474,-0.51235914,9.132683
1741261518.5177069,-0.1312458,-0.0030452774,-0.00023854703,0.99134517,0.05645901,-0.08841694,0.07137271,0.8475474,-0.51235914,9.132683
1741261518.5192041,-0.13134868,-0.0029084291,-0.000118514996,0.991332,0.06604639,-0.105461165,0.05645901,1.1013328,-0.5770026,8.4108305
1741261518.5217903,-0.13137567,-0.0028573354,-7.198761e-05,0.9913286,0.075633764,-0.11185275,0.05006742,1.1013328,-0.5770026,8.4108305
1741261518.523485,-0.13146345,-0.002700724,6.124228e-05,0.9913174,0.07669903,-0.121440135,0.053263217,1.2533646,-0.46208093,8.560468
1741261518.5256066,-0.13148902,-0.002643815,0.00012090856,0.9913142,0.10013484,-0.12463593,0.04687163,1.2533646,-0.46208093,8.560468
1741261518.5274498,-0.1315499,-0.0025431036,0.00022301747,0.9913063,0.10226537,-0.09906958,0.05006742,1.2533646,-0.46208093,8.560468
1741261518.5290713,-0.13164395,-0.0023663884,0.0003911404,0.99129426,0.10226537,-0.121440135,0.063915856,1.1480197,-0.7146692,8.480263
1741261518.5313783,-0.13167316,-0.0023108807,0.0004484501,0.99129045,0.09693905,-0.119309604,0.05432848,1.1480197,-0.7146692,8.480263
1741261518.533239,-0.13173695,-0.0021994975,0.000569506,0.9912822,0.10013484,-0.12357066,0.060720067,1.1480197,-0.7146692,8.480263
1741261518.5354972,-0.13180056,-0.0020966171,0.0006774273,0.9912739,0.077764295,-0.10333064,0.058589537,1.0031705,-0.9540894,9.192537
1741261518.5372837,-0.13188514,-0.0019535238,0.00080968346,0.99126285,0.05752427,-0.090547465,0.05219795,1.0031705,-0.9540894,9.192537
1741261518.5390582,-0.13190997,-0.0019053067,0.00085161295,0.9912596,0.07137271,-0.10226537,0.045806367,1.1504139,-0.50517654,9.527725
1741261518.5413802,-0.13198735,-0.0017480281,0.0009951388,0.9912495,0.09587379,-0.10013484,0.05006742,1.1504139,-0.50517654,9.527725
1741261518.5431035,-0.1320338,-0.0016344206,0.0011187354,0.99124336,0.10333064,-0.11717907,0.038349517,1.0271125,-0.5758055,9.012972
1741261518.5455086,-0.1320338,-0.0016344206,0.0011187354,0.99124336,0.10333064,-0.11717907,0.038349517,1.0271125,-0.5758055,9.012972
1741261518.5473626,-0.13213737,-0.0014344853,0.0013423363,0.9912295,0.09800432,-0.10972223,0.04687163,1.0271125,-0.5758055,9.012972
1741261518.5490606,-0.13218176,-0.0013346571,0.001478399,0.9912235,0.12996225,-0.12357066,0.036218986,1.1815386,-0.6440403,9.23683
1741261518.5516248,-0.13220844,-0.0012865908,0.0015487885,0.99121994,0.12570119,-0.10972223,0.04900216,1.1815386,-0.6440403,9.23683
1741261518.5531576,-0.13229427,-0.0011490289,0.0017554751,0.9912083,0.11611381,-0.11398328,0.05432848,1.22224,-0.8319851,9.67018
1741261518.555872,-0.13235335,-0.0010471131,0.0018836245,0.9912003,0.11398328,-0.10333064,0.05645901,1.22224,-0.8319851,9.67018
1741261518.557499,-0.13241407,-0.0009461144,0.0020134673,0.99119204,0.11717907,-0.121440135,0.05006742,1.0390835,-0.62129533,9.920375
1741261518.5591993,-0.13247521,-0.0008550177,0.0021354035,0.9911837,0.1043959,-0.08841694,0.059654802,1.0390835,-0.62129533,9.920375
1741261518.561408,-0.13250706,-0.0008090312,0.0021933173,0.99117935,0.10226537,-0.10333064,0.059654802,1.0390835,-0.62129533,9.920375
1741261518.5641527,-0.13257903,-0.0007250453,0.002295016,0.9911696,0.091612734,-0.08628641,0.07030744,1.2186487,-0.35075054,9.515755
1741261518.565844,-0.13267231,-0.0005798168,0.00245048,0.9911568,0.09906958,-0.121440135,0.05219795,1.2186487,-0.35075054,9.515755
1741261518.5677915,-0.13270214,-0.0005294958,0.0025146566,0.9911527,0.11078749,-0.11291802,0.055393744,1.2186487,-0.35075054,9.515755
1741261518.569275,-0.13281833,-0.0003692327,0.0026864212,0.9911367,0.08628641,-0.13209277,0.07882956,1.2186487,-0.5746084,9.676167
1741261518.5716438,-0.13284868,-0.00030651625,0.00274727,0.99113256,0.10120011,-0.13635384,0.05645901,1.2186487,-0.5746084,9.676167
1741261518.5731862,-0.13292322,-0.0001952766,0.002878446,0.99112225,0.12570119,-0.11611381,0.07350324,1.2150574,-0.7757214,9.6845455
1741261518.575561,-0.1330017,-0.00010120764,0.0030456427,0.9911111,0.15978965,-0.11398328,0.07137271,1.2150574,-0.7757214,9.6845455
1741261518.5773733,-0.13307618,-6.661958e-06,0.0032256623,0.99110055,0.16618124,-0.11398328,0.075633764,1.2150574,-0.7757214,9.6845455
1741261518.5790536,-0.13316216,8.050261e-05,0.0033990825,0.99108845,0.1523328,-0.091612734,0.08628641,1.0510546,-0.8295909,10.262746
1741261518.581367,-0.13324966,0.00016325999,0.0035675962,0.99107605,0.16298544,-0.10013484,0.08309062,1.0510546,-0.8295909,10.262746
1741261518.5835238,-0.13338041,0.00029414226,0.0038181308,0.9910575,0.15126753,-0.11824434,0.08841694,1.1121067,-0.50397944,9.910798
1741261518.5856183,-0.13342422,0.00035001372,0.003902025,0.9910514,0.15126753,-0.1310275,0.08309062,1.1121067,-0.50397944,9.910798
1741261518.5876765,-0.13351627,0.00042364502,0.00405269,0.9910383,0.14700648,-0.08841694,0.07882956,1.1121067,-0.50397944,9.910798
1741261518.5892828,-0.13359909,0.00050048606,0.0042295097,0.99102634,0.15552859,-0.09906958,0.08202535,0.9876082,-0.32561144,9.43076
1741261518.5911467,-0.13368346,0.0005921129,0.004397876,0.99101424,0.15872438,-0.11291802,0.07669903,0.9876082,-0.32561144,9.43076
1741261518.5931566,-0.1337698,0.0006802735,0.0045579267,0.9910018,0.14594121,-0.10226537,0.08202535,0.9804256,-0.24899697,9.431957
1741261518.5957031,-0.13385153,0.00078267435,0.004726178,0.9909899,0.15339807,-0.13209277,0.07882956,0.9804256,-0.24899697,9.431957
1741261518.5973613,-0.13393357,0.00088954135,0.004879586,0.9909779,0.12570119,-0.14274542,0.07882956,0.9804256,-0.24899697,9.431957
1741261518.599013,-0.13401383,0.0010211222,0.005054288,0.9909661,0.13741909,-0.15659386,0.07669903,1.0893618,-0.36032736,9.297882
1741261518.6013625,-0.13413025,0.0011648759,0.0053008795,0.99094886,0.1523328,-0.14168015,0.08522114,1.0893618,-0.36032736,9.297882
1741261518.6030161,-0.13421227,0.0013199043,0.005441946,0.9909368,0.10865696,-0.18322547,0.07243797,0.9636662,-0.6392518,9.42238
1741261518.6055448,-0.13425961,0.00141826,0.005512172,0.9909299,0.10972223,-0.21305287,0.090547465,0.9636662,-0.6392518,9.42238
1741261518.6076956,-0.13438842,0.0017006847,0.0057156356,0.9909108,0.1342233,-0.21731392,0.075633764,1.5394717,-0.22984336,7.656657
1741261518.6092606,-0.13443002,0.0018204977,0.005787702,0.9909046,0.107591696,-0.25353292,0.07882956,1.5394717,-0.22984336,7.656657
1741261518.6117215,-0.1344979,0.0020652872,0.0059315558,0.9908941,0.105461165,-0.25033712,0.062850595,1.5394717,-0.22984336,7.656657
1741261518.6133628,-0.13457717,0.0024958008,0.006180504,0.9908807,0.13635384,-0.3217098,0.05219795,1.9416976,-0.2705448,8.401254
1741261518.6155741,-0.13463902,0.0027932825,0.0063460534,0.99087054,0.11291802,-0.29614347,0.062850595,1.9416976,-0.2705448,8.401254
1741261518.6176574,-0.13469778,0.003102938,0.0065582404,0.9908602,0.18855178,-0.32916668,0.047936894,2.1571758,-0.6919243,8.408437
1741261518.6191452,-0.13475354,0.00340515,0.006780799,0.9908501,0.18002968,-0.3046656,0.051132686,2.1571758,-0.6919243,8.408437
1741261518.6216261,-0.13482971,0.0036738561,0.0069483053,0.99083763,0.09374326,-0.262055,0.077764295,2.1571758,-0.6919243,8.408437
1741261518.6233008,-0.13490885,0.0038969114,0.0070195273,0.99082553,0.03515372,-0.19920443,0.07243797,2.2876596,-1.103727,10.8864355
1741261518.6256342,-0.13493642,0.0039773323,0.007024916,0.9908214,-0.009587379,-0.14168015,0.05219795,2.2876596,-1.103727,10.8864355
1741261518.6273055,-0.1349403,0.003988371,0.0067591392,0.99082273,-0.2865561,0.11185275,-0.013848436,4.289212,3.4380736,17.47049
1741261518.629013,-0.1349281,0.0039596935,0.0065713143,0.9908258,-0.3792341,0.12889698,-0.02237055,4.289212,3.4380736,17.47049
1741261518.631379,-0.13482866,0.0038805476,0.006091702,0.9908427,-0.5219795,0.18535599,-0.11717907,4.289212,3.4380736,17.47049
1741261518.6330993,-0.13460793,0.0034823073,0.005151125,0.99087954,-0.6476807,0.48576054,-0.12463593,4.0294414,6.2979474,19.426552
1741261518.6355171,-0.13449848,0.0031181725,0.004659799,0.990898,-0.43995416,0.3792341,-0.11291802,4.0294414,6.2979474,19.426552
1741261518.6373792,-0.13435586,0.0028341864,0.004362752,0.99091953,-0.25246763,0.33342773,-0.14594121,0.16280572,-1.3754689,18.942924
1741261518.6389868,-0.13429077,0.0026880056,0.004359127,0.9909287,-0.011717907,0.30360034,-0.13315804,0.16280572,-1.3754689,18.942924
1741261518.6413827,-0.13411006,0.002039343,0.0046256785,0.9909536,0.33342773,0.4058657,-0.14168015,0.16280572,-1.3754689,18.942924
1741261518.6442518,-0.13400611,0.0018747372,0.004874886,0.99096686,0.5134574,0.26098976,-0.21837918,-0.7433996,-5.3354783,11.584345
1741261518.6453762,-0.13362965,0.0013906584,0.00584551,0.9910132,0.8255798,0.2119876,-0.2684466,-0.7433996,-5.3354783,11.584345
1741261518.64736,-0.13338076,0.001090414,0.006466332,0.99104327,0.6796386,0.1640507,-0.25779396,0.01316811,-2.0853498,9.475053
1741261518.6492264,-0.13313875,0.0010720082,0.007320324,0.99106985,0.81918824,-0.09587379,-0.26738134,0.01316811,-2.0853498,9.475053
1741261518.6514556,-0.1330157,0.0010594735,0.0077314884,0.99108326,0.82451457,-0.09480853,-0.26098976,0.01316811,-2.0853498,9.475053
1741261518.6532018,-0.13271543,0.0011264934,0.00900442,0.9911127,0.67857337,-0.149137,-0.21837918,-0.33638534,-0.7757214,4.010288
1741261518.6557965,-0.13251115,0.0011978971,0.009674603,0.9911336,0.6476807,-0.17044228,-0.21411812,-0.33638534,-0.7757214,4.010288
1741261518.6578896,-0.13242178,0.0012384407,0.009900976,0.99114335,0.44634575,-0.15552859,-0.18855178,0.33399114,0.50637364,4.441244
1741261518.6590793,-0.13218017,0.0014581974,0.010733052,0.9911666,0.4506068,-0.17044228,-0.15446332,0.33399114,0.50637364,4.441244
1741261518.6614468,-0.13202962,0.0014822114,0.011250067,0.9911809,0.5262406,-0.11185275,-0.15765911,1.1025299,1.6927006,5.5270147
1741261518.6633444,-0.13197261,0.0014759224,0.011486394,0.9911858,0.45912892,-0.058589537,-0.12357066,1.1025299,1.6927006,5.5270147
1741261518.66544,-0.13184458,0.0015221977,0.011871911,0.99119824,0.3813646,-0.13209277,-0.14381069,1.1025299,1.6927006,5.5270147
1741261518.6673036,-0.13163765,0.0015180268,0.012331715,0.99122006,0.298274,-0.026631609,-0.14487594,2.1416135,3.1723173,7.976283
1741261518.66904,-0.13156943,0.0014987106,0.012469271,0.99122745,0.23222762,0.009587379,-0.14381069,2.1416135,3.1723173,7.976283
1741261518.6713903,-0.13143887,0.0014610481,0.012707333,0.9912418,0.20453075,0.0074568503,-0.13741909,2.1416135,3.1723173,7.976283
1741261518.6732993,-0.13127008,0.0013620274,0.013015894,0.99126035,0.121440135,0.06178533,-0.106526434,1.7142484,2.6288335,3.5218706
1741261518.6757145,-0.13116713,0.001335547,0.013241483,0.991271,0.14487594,0.028762136,-0.11398328,1.7142484,2.6288335,3.5218706
1741261518.6775482,-0.13112915,0.0012997529,0.013336718,0.99127483,0.12570119,0.07350324,-0.08202535,2.0949266,0.79248077,5.9519854
1741261518.6791546,-0.13100271,0.0011510259,0.0136896195,0.9912869,0.149137,0.13528857,-0.079894826,2.0949266,0.79248077,5.9519854
1741261518.6811574,-0.13096826,0.0011013271,0.01379225,0.99129,0.15659386,0.105461165,-0.075633764,2.0949266,0.79248077,5.9519854
1741261518.683987,-0.1308749,0.00094709266,0.014032094,0.99129915,0.08735167,0.10013484,-0.06604639,2.3211784,1.1971009,6.7492547
1741261518.6856234,-0.13079803,0.0008620497,0.014174345,0.9913074,0.06924218,0.11398328,-0.08309062,2.3211784,1.1971009,6.7492547
1741261518.6873837,-0.13075158,0.0008116811,0.014233322,0.9913127,0.07350324,0.121440135,-0.09906958,1.5598224,2.3942018,5.663484
1741261518.689135,-0.13063173,0.00065154844,0.014413565,0.99132603,0.0447411,0.1310275,-0.07882956,1.5598224,2.3942018,5.663484
1741261518.691453,-0.13059418,0.0006057347,0.014476648,0.9913301,0.07030744,0.10865696,-0.08096009,1.5598224,2.3942018,5.663484
1741261518.6931303,-0.1305169,0.00048379807,0.014574834,0.9913389,0.027696872,0.14381069,-0.08628641,1.2844892,1.6089035,7.6506715
1741261518.6950564,-0.13043223,0.0003043226,0.014686133,0.9913485,-0.0010652643,0.13528857,-0.05752427,1.2844892,1.6089035,7.6506715
1741261518.6974518,-0.13040535,0.00023810142,0.014690089,0.991352,-0.030892665,0.15339807,-0.058589537,1.5191209,0.6991069,8.12233
1741261518.6990397,-0.13033889,3.898371e-05,0.014685303,0.99136084,-0.04154531,0.15978965,-0.053263217,1.5191209,0.6991069,8.12233
1741261518.7013726,-0.13032411,-2.5613646e-05,0.014679663,0.99136287,-0.03941478,0.15020227,-0.03408846,1.5191209,0.6991069,8.12233
1741261518.7030542,-0.13027501,-0.00015420723,0.0146661,0.9913695,-0.04261057,0.14274542,-0.05006742,1.8124107,0.712275,8.756793
1741261518.7054892,-0.13020326,-0.0003699541,0.014624086,0.9913795,-0.040480044,0.16831176,-0.053263217,1.8124107,0.712275,8.756793
1741261518.7077715,-0.13017742,-0.0004422674,0.014607882,0.9913831,-0.05006742,0.16618124,-0.05645901,1.2868834,1.2066777,9.52174
1741261518.7098048,-0.13009462,-0.0006953823,0.014607952,0.99139374,-0.02237055,0.17683388,-0.060720067,1.2868834,1.2066777,9.52174
1741261518.7119937,-0.1300716,-0.0007792016,0.014608256,0.99139667,-0.013848436,0.18002968,-0.051132686,1.2868834,1.2066777,9.52174
1741261518.71324,-0.1299814,-0.0010241445,0.0145608215,0.991409,-0.04687163,0.17363809,-0.062850595,1.2485762,0.8750807,9.38168
1741261518.715655,-0.12992975,-0.0011827843,0.014538313,0.9914159,-0.02237055,0.16724649,-0.058589537,1.2485762,0.8750807,9.38168
1741261518.719253,-0.12986512,-0.0013331043,0.014548714,0.991424,0.008522115,0.16192017,-0.0745685,1.4257472,0.7158663,10.107122
1741261518.7196848,-0.12980731,-0.0014798146,0.014556933,0.9914313,0.0021305287,0.14168015,-0.06817692,1.4257472,0.7158663,10.107122
1741261518.7218122,-0.1297795,-0.0015478167,0.014570402,0.99143463,0.0149137005,0.14061488,-0.060720067,1.4257472,0.7158663,10.107122
1741261518.7231796,-0.12972492,-0.0016934088,0.014583619,0.99144137,0.012783172,0.16192017,-0.060720067,1.5071499,0.24540567,10.4171715
1741261518.7258759,-0.12962785,-0.0018904201,0.014632846,0.991453,0.01704423,0.12570119,-0.07030744,1.5071499,0.24540567,10.4171715
1741261518.7275064,-0.12959741,-0.0019570729,0.014642803,0.9914567,0.013848436,0.13848436,-0.06604639,1.4891934,0.59495914,10.327389
1741261518.7292848,-0.12952644,-0.002087115,0.01466145,0.99146545,0.0074568503,0.1342233,-0.07137271,1.4891934,0.59495914,10.327389
1741261518.7314818,-0.1294102,-0.0022764879,0.014698208,0.9914797,0.0010652643,0.12463593,-0.079894826,1.5059528,1.1348516,10.284293
1741261518.7332308,-0.12936552,-0.0023357884,0.014720727,0.991485,0.03515372,0.120374866,-0.09480853,1.5059528,1.1348516,10.284293
1741261518.7356222,-0.12928912,-0.0024467404,0.014740915,0.9914944,0.006391586,0.12570119,-0.08096009,1.5059528,1.1348516,10.284293
1741261518.737688,-0.12916653,-0.0026263092,0.014788713,0.9915092,0.012783172,0.12676646,-0.08415588,1.6807296,0.8439561,10.483012
1741261518.7391956,-0.12912342,-0.0026869273,0.014808295,0.99151444,0.027696872,0.12463593,-0.091612734,1.6807296,0.8439561,10.483012
1741261518.7410123,-0.1290444,-0.0027906948,0.014836127,0.991524,0.010652643,0.119309604,-0.075633764,1.6424223,0.7326257,9.933543
1741261518.7434819,-0.12896268,-0.002889293,0.014861149,0.991534,0.01704423,0.09587379,-0.091612734,1.6424223,0.7326257,9.933543
1741261518.7453845,-0.12884061,-0.0030618273,0.014902869,0.9915487,0.0149137005,0.120374866,-0.08735167,1.7513585,0.7781156,10.061633
1741261518.7473984,-0.12879792,-0.0031099531,0.01491296,0.99155396,0.006391586,0.1043959,-0.090547465,1.7513585,0.7781156,10.061633
1741261518.7491517,-0.12875095,-0.0031541556,0.014926806,0.99155957,0.012783172,0.09587379,-0.09906958,1.7513585,0.7781156,10.061633
1741261518.7519283,-0.12860884,-0.0032740114,0.014941747,0.99157757,-0.009587379,0.08202535,-0.10226537,1.6472107,0.9888053,9.470264
1741261518.7534134,-0.12851371,-0.0033436227,0.014960095,0.99158937,-0.0021305287,0.08309062,-0.10333064,1.6472107,0.9888053,9.470264
1741261518.7556455,-0.12837908,-0.003473901,0.014976682,0.991606,0.0042610574,0.10972223,-0.08522114,1.4664485,0.7577648,9.718064
1741261518.757488,-0.12829097,-0.003566944,0.014991287,0.99161685,0.003195793,0.10972223,-0.092677996,1.4664485,0.7577648,9.718064
1741261518.7591662,-0.12821189,-0.0036543584,0.0150218075,0.9916263,0.011717907,0.08096009,-0.08522114,1.4664485,0.7577648,9.718064
1741261518.7614996,-0.12812722,-0.0037058396,0.015047565,0.9916367,0.0074568503,0.064981125,-0.08841694,1.3730747,0.36870706,9.744401
1741261518.7631347,-0.12805119,-0.0037766425,0.015081612,0.9916457,0.020240022,0.07137271,-0.077764295,1.3730747,0.36870706,9.744401
1741261518.7654452,-0.1280121,-0.0038042504,0.015107501,0.9916503,0.03515372,0.058589537,-0.08309062,1.3730747,0.36870706,9.744401
1741261518.7673156,-0.12790607,-0.0038416313,0.015175913,0.99166274,0.021305285,0.030892665,-0.07137271,1.1611878,0.30047232,8.723274
1741261518.7689743,-0.12783164,-0.0038493255,0.015207441,0.9916718,0.011717907,0.008522115,-0.075633764,1.1611878,0.30047232,8.723274
1741261518.771036,-0.12779383,-0.0038448158,0.015225334,0.9916765,0.012783172,-0.0042610574,-0.079894826,1.3754689,0.79128367,8.780735
1741261518.7731423,-0.12771235,-0.003819934,0.015268946,0.9916864,0.033023193,-0.025566343,-0.08841694,1.3754689,0.79128367,8.780735
1741261518.7758648,-0.12763196,-0.0037943851,0.015322244,0.991696,0.030892665,-0.01704423,-0.08735167,1.3754689,0.79128367,8.780735
1741261518.7775257,-0.12754723,-0.0037534626,0.015373614,0.99170625,0.027696872,-0.04261057,-0.090547465,1.4688427,0.62368953,8.520964
1741261518.7792597,-0.1274752,-0.0037112786,0.015429469,0.99171484,0.021305285,-0.033023193,-0.07350324,1.4688427,0.62368953,8.520964
1741261518.7815568,-0.12739408,-0.0036468618,0.0154930735,0.99172455,0.027696872,-0.062850595,-0.08628641,1.6436194,0.50876784,8.494628
1741261518.7832532,-0.1272866,-0.003541264,0.015579689,0.99173737,0.026631609,-0.06178533,-0.07137271,1.6436194,0.50876784,8.494628
1741261518.786499,-0.12725395,-0.003512267,0.015602036,0.9917413,0.013848436,-0.04900216,-0.06924218,1.6436194,0.50876784,8.494628
1741261518.7873676,-0.12719114,-0.003435603,0.015639119,0.99174905,0.0074568503,-0.08841694,-0.06817692,1.6496049,0.47764325,8.64666
1741261518.7892594,-0.12712237,-0.0033480844,0.015666552,0.99175775,-0.003195793,-0.07669903,-0.06817692,1.6496049,0.47764325,8.64666
1741261518.7914355,-0.12706356,-0.00324305,0.015698588,0.99176514,0.0010652643,-0.10013484,-0.064981125,1.5191209,0.51834464,8.523358
1741261518.7932467,-0.12697516,-0.0031144482,0.015723815,0.9917764,-0.029827401,-0.04687163,-0.05432848,1.5191209,0.51834464,8.523358
1741261518.7953775,-0.12695028,-0.003080733,0.01572259,0.99177974,-0.033023193,-0.051132686,-0.053263217,1.5191209,0.51834464,8.523358
1741261518.7974515,-0.12687992,-0.0029443228,0.015688451,0.9917897,-0.05645901,-0.0745685,-0.05432848,1.6280571,0.8403648,8.378509
1741261518.799256,-0.12685432,-0.0028943904,0.015677188,0.9917933,-0.059654802,-0.079894826,-0.05432848,1.6280571,0.8403648,8.378509
1741261518.801659,-0.12679899,-0.0028128284,0.015648838,0.991801,-0.07137271,-0.05432848,-0.06604639,1.7322049,0.8870517,8.543709
1741261518.8033004,-0.12674613,-0.0027271265,0.01560102,0.99180883,-0.08522114,-0.063915856,-0.05645901,1.7322049,0.8870517,8.543709
1741261518.805819,-0.12668432,-0.0026338035,0.015567935,0.99181753,-0.07030744,-0.07669903,-0.06711165,1.7322049,0.8870517,8.543709
1741261518.8074522,-0.12659755,-0.002499463,0.015521783,0.99182963,-0.06924218,-0.07243797,-0.05752427,1.9632454,0.8798691,8.171411
1741261518.8091054,-0.1265505,-0.002387306,0.015498435,0.9918363,-0.079894826,-0.08202535,-0.05006742,1.9632454,0.8798691,8.171411
1741261518.811472,-0.12652163,-0.002333655,0.015476277,0.9918405,-0.08628641,-0.07882956,-0.060720067,2.147599,0.7206547,8.293514
1741261518.8132339,-0.12646243,-0.00223474,0.015430681,0.991849,-0.09480853,-0.06178533,-0.05432848,2.147599,0.7206547,8.293514
1741261518.8155549,-0.12640506,-0.0021409388,0.0154099325,0.9918568,-0.055393744,-0.062850595,-0.060720067,2.147599,0.7206547,8.293514
1741261518.8178196,-0.12635493,-0.002094088,0.015390081,0.9918636,-0.0447411,-0.008522115,-0.05006742,1.7753005,0.51235914,9.033323
1741261518.819132,-0.1262998,-0.0020465797,0.015373103,0.991871,-0.04900216,-0.010652643,-0.03941478,1.7753005,0.51235914,9.033323
1741261518.8218436,-0.12628141,-0.0020276469,0.015369957,0.99187344,-0.03515372,-0.015978964,-0.040480044,1.4030021,0.25857377,9.306262
1741261518.8233006,-0.1262464,-0.002030673,0.015346942,0.9918782,-0.04261057,0.027696872,-0.03515372,1.4030021,0.25857377,9.306262
1741261518.8255124,-0.12621972,-0.0020208138,0.015326727,0.9918819,-0.04154531,-0.008522115,-0.023435814,1.4030021,0.25857377,9.306262
1741261518.8269546,-0.12619397,-0.002013312,0.015289083,0.9918858,-0.059654802,0.0042610574,-0.031957928,1.4496891,0.4177882,8.391677
1741261518.8291452,-0.12616734,-0.0020170494,0.015264341,0.9918896,-0.04900216,0.033023193,-0.025566343,1.4496891,0.4177882,8.391677
1741261518.8314407,-0.12613551,-0.0020158084,0.015252074,0.9918938,-0.03515372,0.025566343,-0.038349517,2.0087352,0.47405192,8.682572
1741261518.8334296,-0.1261127,-0.0020203432,0.015234168,0.991897,-0.04261057,0.018109493,-0.028762136,2.0087352,0.47405192,8.682572
1741261518.835003,-0.12609562,-0.0020151234,0.015216108,0.99189943,-0.038349517,0.025566343,-0.013848436,1.9261353,0.7086837,8.731653
1741261518.8373682,-0.12607652,-0.002014609,0.015201656,0.99190205,-0.03941478,0.031957928,-0.025566343,1.9261353,0.7086837,8.731653
1741261518.839006,-0.12605658,-0.0020334218,0.015195202,0.9919047,-0.01704423,0.043675836,-0.019174758,1.9261353,0.7086837,8.731653
1741261518.8412957,-0.12605286,-0.0021340519,0.0151478425,0.9919057,-0.07137271,0.13315804,0.003195793,1.6891093,0.5734113,8.450335
1741261518.842977,-0.12606251,-0.00214464,0.015155358,0.9919043,0.03728425,-0.030892665,0.0021305287,1.6891093,0.5734113,8.450335
1741261518.845507,-0.12604511,-0.001978227,0.015373936,0.9919034,0.11717907,-0.105461165,-0.008522115,2.2840683,-0.21667525,7.8158712
1741261518.847647,-0.12605292,-0.0019433459,0.015371134,0.99190253,-0.08415588,0.0021305287,0.0042610574,2.2840683,-0.21667525,7.8158712
1741261518.8491673,-0.12604846,-0.0019094672,0.015324291,0.991904,-0.11717907,-0.028762136,-0.011717907,2.2840683,-0.21667525,7.8158712
1741261518.85149,-0.12603194,-0.0017022019,0.0153474435,0.991906,0.03408846,-0.2087918,-0.025566343,3.810372,1.6543933,6.615179
1741261518.8532474,-0.12601064,-0.0014149292,0.015513571,0.9919066,0.07882956,-0.15339807,-0.008522115,3.810372,1.6543933,6.615179
1741261518.8553824,-0.12601078,-0.0013353677,0.015543823,0.9919062,0.010652643,-0.11717907,-0.003195793,3.8043866,0.6691794,9.379285
1741261518.8585265,-0.12602209,-0.0011855074,0.015521974,0.99190533,-0.05006742,-0.119309604,0.009587379,3.8043866,0.6691794,9.379285
1741261518.858944,-0.12602681,-0.0009499648,0.01549385,0.99190545,-0.11824434,-0.17257282,0.0053263213,3.8043866,0.6691794,9.379285
1741261518.8612657,-0.12604323,-0.0006627507,0.015306532,0.9919065,-0.31318772,-0.23116235,0.01704423,1.4401124,3.417723,11.670536
1741261518.8629909,-0.12601648,-0.00024648025,0.014879104,0.9919166,-0.57417744,-0.3462109,-0.028762136,1.4401124,3.417723,11.670536
1741261518.8657327,-0.1259889,0.00043126833,0.013911987,0.991934,-0.7701861,-0.25140238,-0.011717907,-0.49200845,7.8027034,15.446193
1741261518.8674245,-0.1260042,0.00079230027,0.013324927,0.9919399,-0.6519418,-0.30892664,0.040480044,-0.49200845,7.8027034,15.446193
1741261518.8692453,-0.12611528,0.0010922103,0.0127864815,0.9919327,-0.632767,-0.23435815,0.1225054,1.0414777,0.24061728,22.97476
1741261518.8717363,-0.1261816,0.0012613189,0.012497538,0.99192774,-0.67324704,-0.2663161,0.13954963,1.0414777,0.24061728,22.97476
1741261518.873166,-0.1263582,0.0014264951,0.01182915,0.9919132,-0.7147924,-0.0021305287,0.2087918,1.0414777,0.24061728,22.97476
1741261518.8756042,-0.12673567,0.0013697593,0.0113111315,0.9918711,-0.29720876,0.27803397,0.27483818,1.2976574,-4.559757,23.617603
1741261518.8773193,-0.12698889,0.0011459457,0.011286156,0.9918393,0.07137271,0.14700648,0.23861921,1.2976574,-4.559757,23.617603
1741261518.8788903,-0.12711062,0.00109825,0.011284746,0.9918238,0.0042610574,0.08735167,0.241815,1.2976574,-4.559757,23.617603
1741261518.8812978,-0.12739511,0.00074741215,0.011452927,0.9917857,0.4090615,0.43675837,0.2897519,-0.34955344,-2.9783869,17.879898
1741261518.882966,-0.12764624,0.00046145078,0.011840937,0.99174905,0.30253506,0.090547465,0.22583604,-0.34955344,-2.9783869,17.879898
1741261518.8849118,-0.12787656,0.0005573121,0.011829002,0.9917195,-0.06178533,-0.077764295,0.22796656,0.50397944,1.6053122,5.920861
1741261518.8872998,-0.12805013,0.0002761344,0.011975979,0.99169534,0.09906958,0.24288027,0.18429072,0.50397944,1.6053122,5.920861
1741261518.8890078,-0.12840013,0.00014325113,0.011787351,0.9916524,-0.018109493,0.03408846,0.2237055,0.5446809,2.597709,8.558074
1741261518.8909128,-0.12849988,0.00012223524,0.011773629,0.9916397,-0.036218986,0.03408846,0.19813916,0.5446809,2.597709,8.558074
1741261518.893473,-0.12871325,0.0001833944,0.011666324,0.99161327,-0.12783171,-0.08841694,0.22050971,0.5446809,2.597709,8.558074
1741261518.8955295,-0.12908083,6.7019966e-05,0.011434703,0.99156827,-0.13315804,0.07669903,0.22477077,-1.6448165,-2.111686,6.7133417
1741261518.8971698,-0.1292691,1.1347422e-05,0.011135606,0.99154705,-0.3281014,0.107591696,0.1821602,-1.6448165,-2.111686,6.7133417
1741261518.8989813,-0.1294444,-6.1157305e-05,0.010854416,0.9915273,-0.24074973,0.075633764,0.17257282,0.17357962,0.29328972,8.852561
1741261518.9012847,-0.1295224,-8.546632e-05,0.010675293,0.9915191,-0.35473302,0.06924218,0.15765911,0.17357962,0.29328972,8.852561
1741261518.9029248,-0.12967865,-0.000100299396,0.010306916,0.99150264,-0.31105718,0.026631609,0.1608549,0.17357962,0.29328972,8.852561
1741261518.9049816,-0.12995651,-0.00020953559,0.009773107,0.9914716,-0.29294768,0.06178533,0.18961705,0.5781997,0.7673417,7.487866
1741261518.9077873,-0.13003854,-0.00023285823,0.009633098,0.9914622,-0.28549084,0.063915856,0.16511597,0.5781997,0.7673417,7.487866
1741261518.909763,-0.13018288,-0.00029501566,0.009386788,0.99144566,-0.21092233,0.06817692,0.14168015,0.5781997,0.7673417,7.487866
1741261518.911854,-0.13031578,-0.00035203493,0.00915871,0.9914303,-0.2716424,0.09587379,0.13315804,0.39264908,-0.545878,5.9052987
1741261518.9133227,-0.13044389,-0.0003961982,0.00892435,0.99141556,-0.22264025,0.07243797,0.12889698,0.39264908,-0.545878,5.9052987
1741261518.9154673,-0.13057248,-0.00044933148,0.008682616,0.99140066,-0.21837918,0.06178533,0.12996225,0.62129533,-1.0737995,8.41921
1741261518.917156,-0.13076444,-0.0005176421,0.008373836,0.991378,-0.2119876,0.07243797,0.13635384,0.62129533,-1.0737995,8.41921
1741261518.9189868,-0.13083583,-0.00051330973,0.008275004,0.9913694,-0.19600864,0.0074568503,0.14274542,0.62129533,-1.0737995,8.41921
1741261518.9211717,-0.1309943,-0.00055698626,0.008051205,0.99135035,-0.22796656,0.07243797,0.15659386,0.050278235,-1.4221559,5.9878983
1741261518.9237485,-0.13114685,-0.00062600314,0.0078639295,0.99133164,-0.15339807,0.062850595,0.14487594,0.050278235,-1.4221559,5.9878983
1741261518.9257183,-0.13134281,-0.00070906983,0.007573609,0.9913079,-0.17257282,0.06817692,0.12357066,0.6847417,-0.4309563,6.459556
1741261518.9271114,-0.13140163,-0.0007509743,0.0074782204,0.9913007,-0.17044228,0.10013484,0.11717907,0.6847417,-0.4309563,6.459556
1741261518.928923,-0.13156047,-0.0008438256,0.0071763387,0.9912818,-0.17150755,0.09480853,0.10333064,1.3431472,-0.10414778,7.252037
1741261518.93133,-0.13161452,-0.00086040434,0.0070810555,0.9912753,-0.1821602,0.05752427,0.107591696,1.3431472,-0.10414778,7.252037
1741261518.9329891,-0.13171774,-0.0009057213,0.0069369087,0.9912626,-0.1523328,0.07669903,0.105461165,1.3431472,-0.10414778,7.252037
1741261518.9353673,-0.13182512,-0.0009725718,0.0067830356,0.9912493,-0.12676646,0.08415588,0.11504854,1.0151415,-0.9648633,7.597999
1741261518.9376855,-0.13193423,-0.0010514037,0.006643105,0.99123573,-0.13315804,0.11611381,0.11078749,1.0151415,-0.9648633,7.597999
1741261518.939182,-0.1320416,-0.0011311263,0.006542741,0.991222,-0.06604639,0.106526434,0.10013484,0.33638534,-0.9828198,7.9068513
1741261518.9417677,-0.13219915,-0.001282938,0.0063914335,0.9912018,-0.063915856,0.11398328,0.10972223,0.33638534,-0.9828198,7.9068513
1741261518.9433608,-0.13225293,-0.0013433871,0.006324303,0.991195,-0.10865696,0.13528857,0.106526434,0.33638534,-0.9828198,7.9068513
1741261518.945374,-0.13233803,-0.0014648265,0.0062245,0.9911841,-0.06924218,0.12889698,0.08202535,0.7386112,-0.1316811,7.7667904
1741261518.9472845,-0.1324538,-0.0016427002,0.006081007,0.9911693,-0.06711165,0.11611381,0.07350324,0.7386112,-0.1316811,7.7667904
1741261518.949115,-0.13251579,-0.001780296,0.0059440085,0.9911616,-0.12570119,0.17576861,0.05752427,1.0307038,0.07062895,8.688558
1741261518.951153,-0.13254413,-0.0018598391,0.005880523,0.9911579,-0.10865696,0.17470334,0.055393744,1.0307038,0.07062895,8.688558
1741261518.9530566,-0.1326092,-0.0019992199,0.0057395445,0.9911498,-0.14381069,0.17044228,0.058589537,1.0307038,0.07062895,8.688558
1741261518.9557624,-0.13268651,-0.0022139556,0.005566442,0.99113995,-0.09693905,0.14381069,0.04900216,0.7685388,0.079008654,8.841787
1741261518.9572055,-0.13270822,-0.0022725624,0.0055305883,0.99113715,-0.064981125,0.12570119,0.04154531,0.7685388,0.079008654,8.841787
1741261518.9591212,-0.13277322,-0.002481557,0.005408727,0.9911286,-0.06817692,0.1523328,0.03515372,0.557849,-0.45370123,8.7951
1741261518.9616597,-0.13279861,-0.00254015,0.005369456,0.9911253,-0.07030744,0.12463593,0.04900216,0.557849,-0.45370123,8.7951
1741261518.9631877,-0.13283287,-0.0026539525,0.0052730176,0.99112093,-0.09374326,0.12783171,0.033023193,0.557849,-0.45370123,8.7951
1741261518.9655194,-0.13288933,-0.0028292444,0.0051344223,0.9911136,-0.08735167,0.12889698,0.036218986,0.94331545,0.027533319,8.537724
1741261518.9686217,-0.13290147,-0.0028790329,0.0050901687,0.99111205,-0.08415588,0.10972223,0.02237055,0.94331545,0.027533319,8.537724
1741261518.969708,-0.13292095,-0.0030011227,0.004996398,0.99110955,-0.09480853,0.13741909,0.018109493,0.91219085,0.24181437,9.617508
1741261518.9714496,-0.13297147,-0.0031770621,0.004850982,0.99110293,-0.08841694,0.121440135,0.031957928,0.91219085,0.24181437,9.617508
1741261518.9731476,-0.13299304,-0.0032354319,0.0048006363,0.99110013,-0.09800432,0.12889698,0.04154531,0.91219085,0.24181437,9.617508
1741261518.9756272,-0.13302892,-0.0033636135,0.0047214683,0.99109524,-0.07882956,0.13954963,0.033023193,0.59495914,-0.19393034,9.973047
1741261518.9774318,-0.13308106,-0.0035353608,0.0045827255,0.99108833,-0.09800432,0.121440135,0.027696872,0.59495914,-0.19393034,9.973047
1741261518.9789903,-0.13309309,-0.0035843838,0.0045271083,0.9910868,-0.10972223,0.10865696,0.02237055,0.5662287,0.10414778,9.218874
1741261518.9811132,-0.13311623,-0.003661626,0.00442188,0.9910839,-0.09906958,0.07669903,0.015978964,0.5662287,0.10414778,9.218874
1741261518.9830356,-0.13313562,-0.0037604226,0.0043175966,0.99108136,-0.10333064,0.11611381,0.015978964,0.5662287,0.10414778,9.218874
1741261518.9849672,-0.13317177,-0.0038848047,0.0041461913,0.99107677,-0.1342233,0.075633764,0.011717907,0.78050977,0.2885013,8.66701
1741261518.9871204,-0.13317281,-0.0039112796,0.0040959734,0.9910767,-0.10865696,0.062850595,0.0,0.78050977,0.2885013,8.66701
1741261518.9889584,-0.13319956,-0.003991128,0.003924438,0.99107355,-0.12889698,0.063915856,0.02450108,0.7589619,0.320823,8.684967
1741261518.991263,-0.1332176,-0.0040120357,0.0038269227,0.9910714,-0.121440135,0.015978964,0.021305285,0.7589619,0.320823,8.684967
1741261518.9929838,-0.13321921,-0.0040177475,0.0037737358,0.9910713,-0.1225054,0.023435814,0.0010652643,0.7589619,0.320823,8.684967
1741261518.9963238,-0.13322937,-0.004042389,0.0036241193,0.99107045,-0.11824434,0.030892665,-0.003195793,0.6787562,0.1412579,8.723274
1741261518.9975505,-0.13322836,-0.0040716976,0.0035246531,0.9910708,-0.11824434,0.0447411,-0.0042610574,0.6787562,0.1412579,8.723274
1741261518.9991693,-0.13322468,-0.0040857056,0.003477242,0.99107134,-0.10865696,0.038349517,-0.009587379,0.7637503,0.21906945,7.8829093
1741261519.0020113,-0.13322327,-0.004130285,0.0034045505,0.99107164,-0.08096009,0.055393744,-0.009587379,0.7637503,0.21906945,7.8829093
1741261519.0034509,-0.13321792,-0.0042063915,0.0032580204,0.9910725,-0.11398328,0.07137271,0.008522115,0.7625532,-0.1352724,8.944737
1741261519.00554,-0.13322462,-0.0042350814,0.0031871214,0.9910717,-0.15020227,0.0745685,0.011717907,0.7625532,-0.1352724,8.944737
1741261519.0072167,-0.1332146,-0.0043201786,0.0029800339,0.9910733,-0.14274542,0.06817692,-0.006391586,0.7625532,-0.1352724,8.944737
1741261519.0090072,-0.13321365,-0.004335913,0.0029471032,0.9910735,-0.077764295,0.038349517,-0.0042610574,0.50637364,0.4333505,8.342596
1741261519.0114427,-0.13320376,-0.0043830844,0.00287767,0.99107486,-0.09906958,0.05432848,-0.010652643,0.50637364,0.4333505,8.342596
1741261519.013111,-0.13318005,-0.004402113,0.00277291,0.9910782,-0.09587379,0.020240022,-0.033023193,0.7170634,0.20111294,6.7444663
1741261519.0156345,-0.13314454,-0.0044373246,0.0026555797,0.99108315,-0.12783171,0.051132686,-0.033023193,0.7170634,0.20111294,6.7444663
1741261519.0174735,-0.13310988,-0.004463332,0.0025794932,0.9910879,-0.10865696,0.031957928,-0.04154531,0.7170634,0.20111294,6.7444663
1741261519.0190754,-0.13303924,-0.004456084,0.0024900052,0.9910977,-0.09480853,0.0053263213,-0.04900216,0.79128367,0.35194764,8.5473
1741261519.0215578,-0.13301772,-0.004454705,0.0024470505,0.99110067,-0.106526434,0.008522115,-0.045806367,0.79128367,0.35194764,8.5473
1741261519.0232136,-0.13298258,-0.004412627,0.0024125793,0.9911057,-0.06711165,-0.03728425,-0.033023193,1.0163386,0.017956512,6.68102
1741261519.0259356,-0.13291405,-0.004358954,0.0023720267,0.99111515,-0.04154531,-0.033023193,-0.055393744,1.0163386,0.017956512,6.68102
1741261519.027478,-0.13288692,-0.004344378,0.0023519804,0.99111897,-0.062850595,-0.019174758,-0.05752427,1.0163386,0.017956512,6.68102
1741261519.0289836,-0.13283436,-0.0043029,0.0023258254,0.9911262,-0.04154531,-0.04687163,-0.05645901,1.2006922,0.16759412,8.819042
1741261519.031423,-0.13277115,-0.0042604515,0.0022788432,0.991135,-0.07882956,-0.036218986,-0.06711165,1.2006922,0.16759412,8.819042
1741261519.0330787,-0.13270707,-0.0042279977,0.0022694217,0.99114376,-0.011717907,-0.02237055,-0.06711165,0.9804256,0.35793316,8.48984
1741261519.0351985,-0.13265537,-0.0042093913,0.0022282642,0.9911508,-0.051132686,-0.012783172,-0.055393744,0.9804256,0.35793316,8.48984
1741261519.0371869,-0.13259423,-0.0041474863,0.002186103,0.9911593,-0.029827401,-0.05219795,-0.03941478,0.78888947,0.08738836,8.435969
1741261519.0390613,-0.13257146,-0.00411159,0.0021726023,0.9911626,-0.05645901,-0.062850595,-0.04900216,0.78888947,0.08738836,8.435969
1741261519.0413451,-0.13252878,-0.0040751817,0.0021280444,0.99116856,-0.10865696,-0.030892665,-0.03941478,0.78888947,0.08738836,8.435969
1741261519.0432196,-0.13248202,-0.0040069507,0.0020778917,0.9911752,-0.0894822,-0.06924218,-0.03941478,1.3084313,0.7733272,8.640674
1741261519.0456865,-0.13243687,-0.0039401334,0.0020376062,0.9911816,-0.055393744,-0.05219795,-0.05645901,1.3084313,0.7733272,8.640674
1741261519.0476315,-0.13237906,-0.003860612,0.0019882328,0.9911897,-0.08628641,-0.060720067,-0.062850595,1.3084313,0.7733272,8.640674
1741261519.0491986,-0.13231355,-0.0037619928,0.0019596743,0.9911989,-0.062850595,-0.08735167,-0.07030744,1.7896658,0.60693014,8.825027
1741261519.051443,-0.13225472,-0.0036914714,0.0019300842,0.9912071,-0.06178533,-0.05006742,-0.05645901,1.7896658,0.60693014,8.825027
1741261519.053254,-0.13219962,-0.003583716,0.0018776605,0.99121493,-0.11611381,-0.092677996,-0.062850595,1.6903064,0.2813187,8.046912
1741261519.0556037,-0.13210645,-0.0034001363,0.0017947189,0.99122816,-0.11824434,-0.08628641,-0.07137271,1.6903064,0.2813187,8.046912
1741261519.0573893,-0.1320707,-0.003359397,0.0017429395,0.99123317,-0.13848436,-0.05006742,-0.0745685,1.6903064,0.2813187,8.046912
1741261519.0589857,-0.13199517,-0.0032770042,0.0016640911,0.99124366,-0.090547465,-0.06178533,-0.08309062,1.3970166,0.7410054,9.8198185
1741261519.0614014,-0.13190825,-0.003223035,0.0016362481,0.9912554,-0.05432848,-0.03408846,-0.08841694,1.3970166,0.7410054,9.8198185
1741261519.0640953,-0.13177389,-0.0031636648,0.0015756034,0.99127364,-0.08202535,-0.030892665,-0.09693905,1.0737995,0.6596026,9.481039
1741261519.065737,-0.13172454,-0.003146538,0.0015582895,0.9912802,-0.06711165,-0.018109493,-0.10226537,1.0737995,0.6596026,9.481039
1741261519.0676208,-0.13163666,-0.003138462,0.0015101064,0.991292,-0.05432848,0.019174758,-0.08735167,1.0737995,0.6596026,9.481039
1741261519.0690117,-0.1315391,-0.003113683,0.0014908455,0.9913051,-0.05432848,-0.011717907,-0.10120011,1.423353,0.49440265,9.175778
1741261519.0713904,-0.13144626,-0.0030878726,0.0014708121,0.9913175,-0.03941478,-0.009587379,-0.09480853,1.423353,0.49440265,9.175778
1741261519.0732224,-0.13135993,-0.0030864403,0.001424507,0.991329,-0.092677996,0.015978964,-0.092677996,1.7561469,0.37110126,9.408015
1741261519.0757782,-0.13127933,-0.0030794034,0.0013625717,0.9913398,-0.10333064,0.01704423,-0.08841694,1.7561469,0.37110126,9.408015
1741261519.077637,-0.13118063,-0.0030801657,0.0012878687,0.991353,-0.091612734,0.023435814,-0.09693905,1.7561469,0.37110126,9.408015
1741261519.079715,-0.13108243,-0.0030867963,0.0012202193,0.991366,-0.08841694,0.03728425,-0.10120011,1.7741034,0.9684546,9.362526
1741261519.0815022,-0.13097964,-0.003088306,0.0011689408,0.9913797,-0.08202535,0.021305285,-0.10972223,1.7741034,0.9684546,9.362526
1741261519.083144,-0.13087283,-0.0031812119,0.0010837694,0.99139345,-0.09374326,0.12676646,-0.11611381,1.316811,0.82240826,8.86932
1741261519.0856528,-0.13075922,-0.003214245,0.0010233874,0.9914084,-0.08309062,0.01704423,-0.11504854,1.316811,0.82240826,8.86932
1741261519.0873747,-0.1306647,-0.003144444,0.0009630511,0.9914212,-0.10865696,-0.051132686,-0.0894822,1.316811,0.82240826,8.86932
1741261519.0891669,-0.13052167,-0.0030090054,0.0009598203,0.9914405,0.0,-0.08735167,-0.1043959,2.4025815,0.14604631,8.118738
1741261519.0913963,-0.13046688,-0.002955915,0.0009685766,0.99144787,-0.02450108,-0.08522114,-0.11398328,2.4025815,0.14604631,8.118738
1741261519.0930638,-0.13028191,-0.0027291419,0.0012031887,0.99147254,0.1821602,-0.1640507,-0.14381069,4.185065,-1.2425907,8.974665
1741261519.0951324,-0.13021776,-0.0026415433,0.0013316551,0.99148107,0.21518339,-0.17044228,-0.13528857,4.185065,-1.2425907,8.974665
1741261519.0970569,-0.1301104,-0.002183139,0.0020271991,0.9914951,0.53582793,-0.41332257,-0.04261057,-0.035913024,-5.2923827,14.79497
1741261519.0991054,-0.1301028,-0.0020165697,0.0023453564,0.9914957,0.59548277,-0.3877562,-0.025566343,-0.035913024,-5.2923827,14.79497
1741261519.1013138,-0.1300372,-0.0017868942,0.0029417595,0.9915032,0.58376485,-0.28549084,-0.09800432,-0.035913024,-5.2923827,14.79497
1741261519.1030269,-0.12986813,-0.0016604783,0.0034150935,0.991524,0.43569311,-0.20666128,-0.20026968,-3.2920272,-0.5614403,22.682667
1741261519.1055658,-0.12939993,-0.0014737081,0.003966256,0.9915836,0.30573085,-0.16937703,-0.3813646,-3.2920272,-0.5614403,22.682667
1741261519.1073997,-0.12920679,-0.0014492704,0.0040467544,0.9916083,0.14168015,-0.092677996,-0.39414778,-2.3630772,7.129933,31.195251
1741261519.1089957,-0.12884071,-0.0013565596,0.0042737196,0.99165523,0.19174758,-0.14487594,-0.35686356,-2.3630772,7.129933,31.195251
1741261519.1114063,-0.1284807,-0.0014558095,0.0042546084,0.9917019,-0.10972223,0.13315804,-0.37071198,-2.3630772,7.129933,31.195251
1741261519.1132321,-0.1280946,-0.0015187302,0.004033322,0.9917526,-0.19920443,0.0074568503,-0.39627832,3.0585926,1.4987702,23.47036
1741261519.1157131,-0.12749848,-0.0018339038,0.0031472947,0.9918321,-0.72970605,0.4655205,-0.37284252,3.0585926,1.4987702,23.47036
1741261519.1173794,-0.1271169,-0.0017440909,0.0026606224,0.9918826,-0.49534792,-0.33342773,-0.4175836,2.3187842,4.5406036,16.17403
1741261519.1191618,-0.12674718,-0.0014253283,0.0020572408,0.991932,-0.39734358,-0.105461165,-0.31531823,2.3187842,4.5406036,16.17403
1741261519.1216428,-0.12652001,-0.0017004814,0.0015832077,0.99196136,-0.70094395,0.32703614,-0.21305287,0.6703765,-3.855862,1.8650831
1741261519.1232612,-0.12636565,-0.0016544454,0.00134448,0.9919815,-0.52304476,-0.03408846,-0.30999193,0.6703765,-3.855862,1.8650831
1741261519.125356,-0.12601618,-0.0013760142,0.00053998106,0.99202716,-0.910801,-0.0021305287,-0.34514564,0.6703765,-3.855862,1.8650831
1741261519.1272953,-0.12565653,-0.0013517498,-6.3841435e-05,0.992073,-0.519849,0.023435814,-0.37284252,-1.0606314,5.327099,5.5102553
1741261519.1289756,-0.12522979,-0.0013697776,-0.00067162054,0.9921267,-0.7041397,0.043675836,-0.43036678,-1.0606314,5.327099,5.5102553
1741261519.1309023,-0.12484286,-0.0012918027,-0.0009989965,0.9921753,-0.5443501,-0.026631609,-0.37497303,-1.0606314,5.327099,5.5102553
1741261519.1330106,-0.12436404,-0.0012187951,-0.0016396808,0.99223465,-0.45273733,-0.0149137005,-0.27803397,0.9840169,1.8100165,6.6079965
1741261519.1360235,-0.12423433,-0.0012910074,-0.0018262713,0.99225044,-0.41864887,0.18322547,-0.25885922,0.9840169,1.8100165,6.6079965
1741261519.1376395,-0.12401374,-0.0013221789,-0.0018558087,0.992278,0.04154531,0.0149137005,-0.2237055,1.067814,-5.0505686,4.5274353
1741261519.1391664,-0.12377777,-0.0014867309,-0.002051082,0.99230677,-0.2087918,0.18535599,-0.23329288,1.067814,-5.0505686,4.5274353
1741261519.1412737,-0.123558216,-0.0015089683,-0.002227081,0.9923337,-0.34194985,0.012783172,-0.22264025,1.067814,-5.0505686,4.5274353
